%time,field.header.seq,field.header.stamp,field.header.frame_id,field.orientation.x,field.orientation.y,field.orientation.z,field.orientation.w,field.orientation_covariance0,field.orientation_covariance1,field.orientation_covariance2,field.orientation_covariance3,field.orientation_covariance4,field.orientation_covariance5,field.orientation_covariance6,field.orientation_covariance7,field.orientation_covariance8,field.angular_velocity.x,field.angular_velocity.y,field.angular_velocity.z,field.angular_velocity_covariance0,field.angular_velocity_covariance1,field.angular_velocity_covariance2,field.angular_velocity_covariance3,field.angular_velocity_covariance4,field.angular_velocity_covariance5,field.angular_velocity_covariance6,field.angular_velocity_covariance7,field.angular_velocity_covariance8,field.linear_acceleration.x,field.linear_acceleration.y,field.linear_acceleration.z,field.linear_acceleration_covariance0,field.linear_acceleration_covariance1,field.linear_acceleration_covariance2,field.linear_acceleration_covariance3,field.linear_acceleration_covariance4,field.linear_acceleration_covariance5,field.linear_acceleration_covariance6,field.linear_acceleration_covariance7,field.linear_acceleration_covariance8
1430081139804877591,4,1430081135575598424,,0.0,0.0,0.0,0.0,0.0,0.0,0.0,0.0,0.0,0.0,0.0,0.0,0.0,-0.0207732900988,0.0170447508503,-0.014914156994,0.0,0.0,0.0,0.0,0.0,0.0,0.0,0.0,0.0,-0.921170690023,9.46772057253,1.99307840205,0.0,0.0,0.0,0.0,0.0,0.0,0.0,0.0,0.0
1430081175578328512,5,1430081175575621762,,0.0,0.0,0.0,0.0,0.0,0.0,0.0,0.0,0.0,0.0,0.0,0.0,0.0,-0.0186426962425,0.0133162116018,-0.0154468054581,0.0,0.0,0.0,0.0,0.0,0.0,0.0,0.0,0.0,-0.949882503739,9.50121768853,1.94283272805,0.0,0.0,0.0,0.0,0.0,0.0,0.0,0.0,0.0
1430081215578424975,6,1430081215575651142,,0.0,0.0,0.0,0.0,0.0,0.0,0.0,0.0,0.0,0.0,0.0,0.0,0.0,-0.0197079931706,0.0133162116018,-0.0197079931706,0.0,0.0,0.0,0.0,0.0,0.0,0.0,0.0,0.0,-0.878102969451,9.46532792138,2.08160649434,0.0,0.0,0.0,0.0,0.0,0.0,0.0,0.0,0.0
1430081255578589855,7,1430081255575717355,,0.0,0.0,0.0,0.0,0.0,0.0,0.0,0.0,0.0,0.0,0.0,0.0,0.0,-0.0207732900988,0.00905502388921,-0.0202406416347,0.0,0.0,0.0,0.0,0.0,0.0,0.0,0.0,0.0,-0.868532364879,9.48686178167,2.05289468062,0.0,0.0,0.0,0.0,0.0,0.0,0.0,0.0,0.0
1430081295578424151,8,1430081295575591318,,0.0,0.0,0.0,0.0,0.0,0.0,0.0,0.0,0.0,0.0,0.0,0.0,0.0,-0.0197079931706,0.014914156994,-0.0175773993144,0.0,0.0,0.0,0.0,0.0,0.0,0.0,0.0,0.0,-0.870925016022,9.45097201453,1.93804742576,0.0,0.0,0.0,0.0,0.0,0.0,0.0,0.0,0.0
1430081335578640239,9,1430081335575621406,,0.0,0.0,0.0,0.0,0.0,0.0,0.0,0.0,0.0,0.0,0.0,0.0,0.0,-0.0207732900988,0.0127835631377,-0.0207732900988,0.0,0.0,0.0,0.0,0.0,0.0,0.0,0.0,0.0,-0.973809015168,9.45575731681,2.08160649434,0.0,0.0,0.0,0.0,0.0,0.0,0.0,0.0,0.0
1430081375578334369,10,1430081375575601661,,0.0,0.0,0.0,0.0,0.0,0.0,0.0,0.0,0.0,0.0,0.0,0.0,0.0,-0.0159794539221,0.0111856177455,-0.0218385870269,0.0,0.0,0.0,0.0,0.0,0.0,0.0,0.0,0.0,-0.913992736595,9.47968382824,1.94761803034,0.0,0.0,0.0,0.0,0.0,0.0,0.0,0.0,0.0
1430081415580739166,11,1430081415575631791,,0.0,0.0,0.0,0.0,0.0,0.0,0.0,0.0,0.0,0.0,0.0,0.0,0.0,-0.0197079931706,0.0117182662096,-0.0191753447066,0.0,0.0,0.0,0.0,0.0,0.0,0.0,0.0,0.0,-0.892458876308,9.45097201453,2.02896816919,0.0,0.0,0.0,0.0,0.0,0.0,0.0,0.0,0.0
1430081455578369379,12,1430081455575602879,,0.0,0.0,0.0,0.0,0.0,0.0,0.0,0.0,0.0,0.0,0.0,0.0,0.0,-0.0197079931706,0.0122509146736,-0.0170447508503,0.0,0.0,0.0,0.0,0.0,0.0,0.0,0.0,0.0,-0.909207434309,9.46772057253,2.05528733177,0.0,0.0,0.0,0.0,0.0,0.0,0.0,0.0,0.0
1430081495578295175,13,1430081495575604175,,0.0,0.0,0.0,0.0,0.0,0.0,0.0,0.0,0.0,0.0,0.0,0.0,0.0,-0.0191753447066,0.0122509146736,-0.0207732900988,0.0,0.0,0.0,0.0,0.0,0.0,0.0,0.0,0.0,-0.909207434309,9.4940397351,2.0457167272,0.0,0.0,0.0,0.0,0.0,0.0,0.0,0.0,0.0
1430081535578360763,14,1430081535575616555,,0.0,0.0,0.0,0.0,0.0,0.0,0.0,0.0,0.0,0.0,0.0,0.0,0.0,-0.0170447508503,0.0138488600659,-0.0202406416347,0.0,0.0,0.0,0.0,0.0,0.0,0.0,0.0,0.0,-0.921170690023,9.40311899167,2.02657551805,0.0,0.0,0.0,0.0,0.0,0.0,0.0,0.0,0.0
1430081575578365643,15,1430081575575606268,,0.0,0.0,0.0,0.0,0.0,0.0,0.0,0.0,0.0,0.0,0.0,0.0,0.0,-0.0175773993144,0.0138488600659,-0.0202406416347,0.0,0.0,0.0,0.0,0.0,0.0,0.0,0.0,0.0,-0.911600085452,9.4772911771,1.97632984405,0.0,0.0,0.0,0.0,0.0,0.0,0.0,0.0,0.0
1430081615578331398,16,1430081615575609606,,0.0,0.0,0.0,0.0,0.0,0.0,0.0,0.0,0.0,0.0,0.0,0.0,0.0,-0.0191753447066,0.014914156994,-0.0181100477784,0.0,0.0,0.0,0.0,0.0,0.0,0.0,0.0,0.0,-0.921170690023,9.49164708396,2.07442854091,0.0,0.0,0.0,0.0,0.0,0.0,0.0,0.0,0.0
1430081655578281569,17,1430081655575570777,,0.0,0.0,0.0,0.0,0.0,0.0,0.0,0.0,0.0,0.0,0.0,0.0,0.0,-0.0213059385628,0.0117182662096,-0.0181100477784,0.0,0.0,0.0,0.0,0.0,0.0,0.0,0.0,0.0,-0.870925016022,9.46772057253,1.97393719291,0.0,0.0,0.0,0.0,0.0,0.0,0.0,0.0,0.0
1430081695578687741,18,1430081695575619824,,0.0,0.0,0.0,0.0,0.0,0.0,0.0,0.0,0.0,0.0,0.0,0.0,0.0,-0.0170447508503,0.0122509146736,-0.0191753447066,0.0,0.0,0.0,0.0,0.0,0.0,0.0,0.0,0.0,-0.933133945738,9.4605426191,1.98350779748,0.0,0.0,0.0,0.0,0.0,0.0,0.0,0.0,0.0
1430081735578255204,19,1430081735575605454,,0.0,0.0,0.0,0.0,0.0,0.0,0.0,0.0,0.0,0.0,0.0,0.0,0.0,-0.0191753447066,0.00852237542514,-0.0191753447066,0.0,0.0,0.0,0.0,0.0,0.0,0.0,0.0,0.0,-0.875710318308,9.45814996796,2.10792565691,0.0,0.0,0.0,0.0,0.0,0.0,0.0,0.0,0.0
1430081775579029375,20,1430081775575608667,,0.0,0.0,0.0,0.0,0.0,0.0,0.0,0.0,0.0,0.0,0.0,0.0,0.0,-0.0181100477784,0.014914156994,-0.0175773993144,0.0,0.0,0.0,0.0,0.0,0.0,0.0,0.0,0.0,-0.921170690023,9.4772911771,2.03853877377,0.0,0.0,0.0,0.0,0.0,0.0,0.0,0.0,0.0
1430081815578384338,21,1430081815575615005,,0.0,0.0,0.0,0.0,0.0,0.0,0.0,0.0,0.0,0.0,0.0,0.0,0.0,-0.0191753447066,0.0133162116018,-0.0165121023862,0.0,0.0,0.0,0.0,0.0,0.0,0.0,0.0,0.0,-0.835035248878,9.51318094424,2.03136082034,0.0,0.0,0.0,0.0,0.0,0.0,0.0,0.0,0.0
1430081855578367760,22,1430081855575614176,,0.0,0.0,0.0,0.0,0.0,0.0,0.0,0.0,0.0,0.0,0.0,0.0,0.0,-0.0181100477784,0.0122509146736,-0.0181100477784,0.0,0.0,0.0,0.0,0.0,0.0,0.0,0.0,0.0,-0.947489852596,9.46772057253,2.05767998291,0.0,0.0,0.0,0.0,0.0,0.0,0.0,0.0,0.0
1430081895578431931,23,1430081895575702764,,0.0,0.0,0.0,0.0,0.0,0.0,0.0,0.0,0.0,0.0,0.0,0.0,0.0,-0.0202406416347,0.0133162116018,-0.00905502388921,0.0,0.0,0.0,0.0,0.0,0.0,0.0,0.0,0.0,-0.930741294595,9.43183080538,2.03375347148,0.0,0.0,0.0,0.0,0.0,0.0,0.0,0.0,0.0
1430081935578361811,24,1430081935575619519,,0.0,0.0,0.0,0.0,0.0,0.0,0.0,0.0,0.0,0.0,0.0,0.0,0.0,-0.0197079931706,0.0133162116018,-0.0175773993144,0.0,0.0,0.0,0.0,0.0,0.0,0.0,0.0,0.0,-0.890066225166,9.50361033967,2.04332407605,0.0,0.0,0.0,0.0,0.0,0.0,0.0,0.0,0.0
1430081975578324607,25,1430081975575625274,,0.0,0.0,0.0,0.0,0.0,0.0,0.0,0.0,0.0,0.0,0.0,0.0,0.0,-0.0213059385628,0.0143815085299,-0.0202406416347,0.0,0.0,0.0,0.0,0.0,0.0,0.0,0.0,0.0,-0.899636829737,9.46772057253,2.07682119205,0.0,0.0,0.0,0.0,0.0,0.0,0.0,0.0,0.0
1430082015578396779,26,1430082015575636320,,0.0,0.0,0.0,0.0,0.0,0.0,0.0,0.0,0.0,0.0,0.0,0.0,0.0,-0.0191753447066,0.0133162116018,-0.0191753447066,0.0,0.0,0.0,0.0,0.0,0.0,0.0,0.0,0.0,-0.933133945738,9.4605426191,2.02896816919,0.0,0.0,0.0,0.0,0.0,0.0,0.0,0.0,0.0
1430082055578702075,27,1430082055575633908,,0.0,0.0,0.0,0.0,0.0,0.0,0.0,0.0,0.0,0.0,0.0,0.0,0.0,-0.0197079931706,0.0122509146736,-0.0207732900988,0.0,0.0,0.0,0.0,0.0,0.0,0.0,0.0,0.0,-0.937919248024,9.49164708396,2.05050202948,0.0,0.0,0.0,0.0,0.0,0.0,0.0,0.0,0.0
1430082095580655080,28,1430082095575614372,,0.0,0.0,0.0,0.0,0.0,0.0,0.0,0.0,0.0,0.0,0.0,0.0,0.0,-0.0165121023862,0.0133162116018,-0.0191753447066,0.0,0.0,0.0,0.0,0.0,0.0,0.0,0.0,0.0,-0.937919248024,9.51557359539,2.08160649434,0.0,0.0,0.0,0.0,0.0,0.0,0.0,0.0,0.0
1430082135578421335,29,1430082135575684376,,0.0,0.0,0.0,0.0,0.0,0.0,0.0,0.0,0.0,0.0,0.0,0.0,0.0,-0.0186426962425,0.0138488600659,-0.0181100477784,0.0,0.0,0.0,0.0,0.0,0.0,0.0,0.0,0.0,-0.88528092288,9.45575731681,2.05767998291,0.0,0.0,0.0,0.0,0.0,0.0,0.0,0.0,0.0
1430082175578301214,30,1430082175575622589,,0.0,0.0,0.0,0.0,0.0,0.0,0.0,0.0,0.0,0.0,0.0,0.0,0.0,-0.0186426962425,0.0170447508503,-0.0229038839551,0.0,0.0,0.0,0.0,0.0,0.0,0.0,0.0,0.0,-0.916385387738,9.51796624653,2.04332407605,0.0,0.0,0.0,0.0,0.0,0.0,0.0,0.0,0.0
1430082215578390053,31,1430082215575610469,,0.0,0.0,0.0,0.0,0.0,0.0,0.0,0.0,0.0,0.0,0.0,0.0,0.0,-0.0207732900988,0.0111856177455,-0.0175773993144,0.0,0.0,0.0,0.0,0.0,0.0,0.0,0.0,0.0,-0.913992736595,9.46532792138,1.93086947233,0.0,0.0,0.0,0.0,0.0,0.0,0.0,0.0,0.0
1430082255578315516,32,1430082255575617516,,0.0,0.0,0.0,0.0,0.0,0.0,0.0,0.0,0.0,0.0,0.0,0.0,0.0,-0.0213059385628,0.0117182662096,-0.0191753447066,0.0,0.0,0.0,0.0,0.0,0.0,0.0,0.0,0.0,-0.913992736595,9.5107882931,1.99307840205,0.0,0.0,0.0,0.0,0.0,0.0,0.0,0.0,0.0
1430082295578546770,33,1430082295575585062,,0.0,0.0,0.0,0.0,0.0,0.0,0.0,0.0,0.0,0.0,0.0,0.0,0.0,-0.0202406416347,0.0117182662096,-0.0186426962425,0.0,0.0,0.0,0.0,0.0,0.0,0.0,0.0,0.0,-0.882888271737,9.4605426191,2.01221961119,0.0,0.0,0.0,0.0,0.0,0.0,0.0,0.0,0.0
1430082335578541234,34,1430082335575611109,,0.0,0.0,0.0,0.0,0.0,0.0,0.0,0.0,0.0,0.0,0.0,0.0,0.0,-0.0202406416347,0.0122509146736,-0.0202406416347,0.0,0.0,0.0,0.0,0.0,0.0,0.0,0.0,0.0,-0.835035248878,9.49164708396,2.11988891263,0.0,0.0,0.0,0.0,0.0,0.0,0.0,0.0,0.0
1430082375581817947,35,1430082375575603072,,0.0,0.0,0.0,0.0,0.0,0.0,0.0,0.0,0.0,0.0,0.0,0.0,0.0,-0.0197079931706,0.0143815085299,-0.0154468054581,0.0,0.0,0.0,0.0,0.0,0.0,0.0,0.0,0.0,-0.90202948088,9.41986754967,2.00264900662,0.0,0.0,0.0,0.0,0.0,0.0,0.0,0.0,0.0
1430082415580417160,36,1430082415575750993,,0.0,0.0,0.0,0.0,0.0,0.0,0.0,0.0,0.0,0.0,0.0,0.0,0.0,-0.0202406416347,0.0127835631377,-0.0175773993144,0.0,0.0,0.0,0.0,0.0,0.0,0.0,0.0,0.0,-0.966631061739,9.51557359539,2.10314035463,0.0,0.0,0.0,0.0,0.0,0.0,0.0,0.0,0.0
1430082455578600539,37,1430082455576031498,,0.0,0.0,0.0,0.0,0.0,0.0,0.0,0.0,0.0,0.0,0.0,0.0,0.0,-0.0191753447066,0.00958767235328,-0.0191753447066,0.0,0.0,0.0,0.0,0.0,0.0,0.0,0.0,0.0,-0.849391155736,9.45575731681,2.02657551805,0.0,0.0,0.0,0.0,0.0,0.0,0.0,0.0,0.0
1430082495578283586,38,1430082495575606919,,0.0,0.0,0.0,0.0,0.0,0.0,0.0,0.0,0.0,0.0,0.0,0.0,0.0,-0.0191753447066,0.0133162116018,-0.0186426962425,0.0,0.0,0.0,0.0,0.0,0.0,0.0,0.0,0.0,-0.897244178594,9.52992950224,2.06964323862,0.0,0.0,0.0,0.0,0.0,0.0,0.0,0.0,0.0
1430082535578660924,39,1430082535575725674,,0.0,0.0,0.0,0.0,0.0,0.0,0.0,0.0,0.0,0.0,0.0,0.0,0.0,-0.0191753447066,0.0127835631377,-0.0181100477784,0.0,0.0,0.0,0.0,0.0,0.0,0.0,0.0,0.0,-0.870925016022,9.40072634053,1.99786370434,0.0,0.0,0.0,0.0,0.0,0.0,0.0,0.0,0.0
1430082575578310137,40,1430082575575551345,,0.0,0.0,0.0,0.0,0.0,0.0,0.0,0.0,0.0,0.0,0.0,0.0,0.0,-0.0207732900988,0.0106529692814,-0.0170447508503,0.0,0.0,0.0,0.0,0.0,0.0,0.0,0.0,0.0,-0.899636829737,9.41747489853,2.01939756462,0.0,0.0,0.0,0.0,0.0,0.0,0.0,0.0,0.0
1430082615578314225,41,1430082615575624975,,0.0,0.0,0.0,0.0,0.0,0.0,0.0,0.0,0.0,0.0,0.0,0.0,0.0,-0.0207732900988,0.0101203208174,-0.0175773993144,0.0,0.0,0.0,0.0,0.0,0.0,0.0,0.0,0.0,-0.846998504593,9.40311899167,2.05528733177,0.0,0.0,0.0,0.0,0.0,0.0,0.0,0.0,0.0
1430082655578300438,42,1430082655575596938,,0.0,0.0,0.0,0.0,0.0,0.0,0.0,0.0,0.0,0.0,0.0,0.0,0.0,-0.0191753447066,0.00905502388921,-0.0154468054581,0.0,0.0,0.0,0.0,0.0,0.0,0.0,0.0,0.0,-0.82785729545,9.47489852596,1.99786370434,0.0,0.0,0.0,0.0,0.0,0.0,0.0,0.0,0.0
1430082695578276526,43,1430082695575597860,,0.0,0.0,0.0,0.0,0.0,0.0,0.0,0.0,0.0,0.0,0.0,0.0,0.0,-0.0186426962425,0.0154468054581,-0.0197079931706,0.0,0.0,0.0,0.0,0.0,0.0,0.0,0.0,0.0,-0.916385387738,9.48207647938,2.15099337748,0.0,0.0,0.0,0.0,0.0,0.0,0.0,0.0,0.0
1430082735578260156,44,1430082735575562698,,0.0,0.0,0.0,0.0,0.0,0.0,0.0,0.0,0.0,0.0,0.0,0.0,0.0,-0.0181100477784,0.0117182662096,-0.0165121023862,0.0,0.0,0.0,0.0,0.0,0.0,0.0,0.0,0.0,-0.906814783166,9.46772057253,2.06725058748,0.0,0.0,0.0,0.0,0.0,0.0,0.0,0.0,0.0
1430082775578274619,45,1430082775575599369,,0.0,0.0,0.0,0.0,0.0,0.0,0.0,0.0,0.0,0.0,0.0,0.0,0.0,-0.0181100477784,0.0117182662096,-0.0181100477784,0.0,0.0,0.0,0.0,0.0,0.0,0.0,0.0,0.0,-0.940311899167,9.47968382824,1.97154454176,0.0,0.0,0.0,0.0,0.0,0.0,0.0,0.0,0.0
1430082815578374416,46,1430082815575627791,,0.0,0.0,0.0,0.0,0.0,0.0,0.0,0.0,0.0,0.0,0.0,0.0,0.0,-0.0191753447066,0.0111856177455,-0.0186426962425,0.0,0.0,0.0,0.0,0.0,0.0,0.0,0.0,0.0,-0.940311899167,9.44857936338,1.98590044862,0.0,0.0,0.0,0.0,0.0,0.0,0.0,0.0,0.0
1430082855578333921,47,1430082855575634087,,0.0,0.0,0.0,0.0,0.0,0.0,0.0,0.0,0.0,0.0,0.0,0.0,0.0,-0.0186426962425,0.014914156994,-0.0202406416347,0.0,0.0,0.0,0.0,0.0,0.0,0.0,0.0,0.0,-0.930741294595,9.49643238624,1.96675923948,0.0,0.0,0.0,0.0,0.0,0.0,0.0,0.0,0.0
1430082895578341592,48,1430082895575637800,,0.0,0.0,0.0,0.0,0.0,0.0,0.0,0.0,0.0,0.0,0.0,0.0,0.0,-0.0186426962425,0.0143815085299,-0.0165121023862,0.0,0.0,0.0,0.0,0.0,0.0,0.0,0.0,0.0,-0.90202948088,9.47011322367,2.0959624012,0.0,0.0,0.0,0.0,0.0,0.0,0.0,0.0,0.0
1430082935578285263,49,1430082935575597722,,0.0,0.0,0.0,0.0,0.0,0.0,0.0,0.0,0.0,0.0,0.0,0.0,0.0,-0.0186426962425,0.0133162116018,-0.0181100477784,0.0,0.0,0.0,0.0,0.0,0.0,0.0,0.0,0.0,-0.911600085452,9.4605426191,1.98829309977,0.0,0.0,0.0,0.0,0.0,0.0,0.0,0.0,0.0
1430082975578302143,50,1430082975575612976,,0.0,0.0,0.0,0.0,0.0,0.0,0.0,0.0,0.0,0.0,0.0,0.0,0.0,-0.0202406416347,0.0117182662096,-0.0170447508503,0.0,0.0,0.0,0.0,0.0,0.0,0.0,0.0,0.0,-0.868532364879,9.47011322367,2.00504165777,0.0,0.0,0.0,0.0,0.0,0.0,0.0,0.0,0.0
1430083015578300106,51,1430083015575606981,,0.0,0.0,0.0,0.0,0.0,0.0,0.0,0.0,0.0,0.0,0.0,0.0,0.0,-0.0186426962425,0.0127835631377,-0.0191753447066,0.0,0.0,0.0,0.0,0.0,0.0,0.0,0.0,0.0,-0.928348643452,9.47011322367,1.92847682119,0.0,0.0,0.0,0.0,0.0,0.0,0.0,0.0,0.0
1430083055578345069,52,1430083055575577194,,0.0,0.0,0.0,0.0,0.0,0.0,0.0,0.0,0.0,0.0,0.0,0.0,0.0,-0.0165121023862,0.0122509146736,-0.0175773993144,0.0,0.0,0.0,0.0,0.0,0.0,0.0,0.0,0.0,-0.966631061739,9.43900875881,2.04810937834,0.0,0.0,0.0,0.0,0.0,0.0,0.0,0.0,0.0
1430083095578287324,53,1430083095575620741,,0.0,0.0,0.0,0.0,0.0,0.0,0.0,0.0,0.0,0.0,0.0,0.0,0.0,-0.0175773993144,0.0133162116018,-0.0202406416347,0.0,0.0,0.0,0.0,0.0,0.0,0.0,0.0,0.0,-0.913992736595,9.47011322367,2.06725058748,0.0,0.0,0.0,0.0,0.0,0.0,0.0,0.0,0.0
1430083135578403746,54,1430083135575717829,,0.0,0.0,0.0,0.0,0.0,0.0,0.0,0.0,0.0,0.0,0.0,0.0,0.0,-0.0197079931706,0.0133162116018,-0.0175773993144,0.0,0.0,0.0,0.0,0.0,0.0,0.0,0.0,0.0,-0.878102969451,9.46293527024,2.08878444777,0.0,0.0,0.0,0.0,0.0,0.0,0.0,0.0,0.0
1430083175578279000,55,1430083175575605459,,0.0,0.0,0.0,0.0,0.0,0.0,0.0,0.0,0.0,0.0,0.0,0.0,0.0,-0.0202406416347,0.0122509146736,-0.0202406416347,0.0,0.0,0.0,0.0,0.0,0.0,0.0,0.0,0.0,-0.88528092288,9.44857936338,2.09835505234,0.0,0.0,0.0,0.0,0.0,0.0,0.0,0.0,0.0
1430083215578290713,56,1430083215575597713,,0.0,0.0,0.0,0.0,0.0,0.0,0.0,0.0,0.0,0.0,0.0,0.0,0.0,-0.0165121023862,0.00958767235328,-0.0202406416347,0.0,0.0,0.0,0.0,0.0,0.0,0.0,0.0,0.0,-0.928348643452,9.45336466567,2.08878444777,0.0,0.0,0.0,0.0,0.0,0.0,0.0,0.0,0.0
1430083255578316718,57,1430083255575614218,,0.0,0.0,0.0,0.0,0.0,0.0,0.0,0.0,0.0,0.0,0.0,0.0,0.0,-0.0181100477784,0.0117182662096,-0.0170447508503,0.0,0.0,0.0,0.0,0.0,0.0,0.0,0.0,0.0,-0.928348643452,9.49643238624,2.01221961119,0.0,0.0,0.0,0.0,0.0,0.0,0.0,0.0,0.0
1430083295579473640,58,1430083295575967098,,0.0,0.0,0.0,0.0,0.0,0.0,0.0,0.0,0.0,0.0,0.0,0.0,0.0,-0.0181100477784,0.0127835631377,-0.0191753447066,0.0,0.0,0.0,0.0,0.0,0.0,0.0,0.0,0.0,-0.899636829737,9.46772057253,2.03853877377,0.0,0.0,0.0,0.0,0.0,0.0,0.0,0.0,0.0
1430083335578337144,59,1430083335575633061,,0.0,0.0,0.0,0.0,0.0,0.0,0.0,0.0,0.0,0.0,0.0,0.0,0.0,-0.0197079931706,0.0138488600659,-0.0181100477784,0.0,0.0,0.0,0.0,0.0,0.0,0.0,0.0,0.0,-0.918778038881,9.46532792138,2.07203588977,0.0,0.0,0.0,0.0,0.0,0.0,0.0,0.0,0.0
1430083375578324232,60,1430083375575608399,,0.0,0.0,0.0,0.0,0.0,0.0,0.0,0.0,0.0,0.0,0.0,0.0,0.0,-0.0207732900988,0.0133162116018,-0.0186426962425,0.0,0.0,0.0,0.0,0.0,0.0,0.0,0.0,0.0,-0.873317667165,9.46772057253,2.02418286691,0.0,0.0,0.0,0.0,0.0,0.0,0.0,0.0,0.0
1430083415578319237,61,1430083415575631321,,0.0,0.0,0.0,0.0,0.0,0.0,0.0,0.0,0.0,0.0,0.0,0.0,0.0,-0.0197079931706,0.0122509146736,-0.0181100477784,0.0,0.0,0.0,0.0,0.0,0.0,0.0,0.0,0.0,-0.945097201453,9.4437940611,2.03853877377,0.0,0.0,0.0,0.0,0.0,0.0,0.0,0.0,0.0
1430083455578926867,62,1430083455575602784,,0.0,0.0,0.0,0.0,0.0,0.0,0.0,0.0,0.0,0.0,0.0,0.0,0.0,-0.0202406416347,0.014914156994,-0.0165121023862,0.0,0.0,0.0,0.0,0.0,0.0,0.0,0.0,0.0,-0.921170690023,9.45575731681,2.12228156377,0.0,0.0,0.0,0.0,0.0,0.0,0.0,0.0,0.0
1430083495578297872,63,1430083495575600955,,0.0,0.0,0.0,0.0,0.0,0.0,0.0,0.0,0.0,0.0,0.0,0.0,0.0,-0.0213059385628,0.0122509146736,-0.0181100477784,0.0,0.0,0.0,0.0,0.0,0.0,0.0,0.0,0.0,-0.858961760308,9.47968382824,2.14142277291,0.0,0.0,0.0,0.0,0.0,0.0,0.0,0.0,0.0
1430083535578402002,64,1430083535575631668,,0.0,0.0,0.0,0.0,0.0,0.0,0.0,0.0,0.0,0.0,0.0,0.0,0.0,-0.0207732900988,0.0133162116018,-0.0181100477784,0.0,0.0,0.0,0.0,0.0,0.0,0.0,0.0,0.0,-0.861354411451,9.4437940611,2.03136082034,0.0,0.0,0.0,0.0,0.0,0.0,0.0,0.0,0.0
1430083575578493090,65,1430083575575612548,,0.0,0.0,0.0,0.0,0.0,0.0,0.0,0.0,0.0,0.0,0.0,0.0,0.0,-0.0181100477784,0.0117182662096,-0.022371235491,0.0,0.0,0.0,0.0,0.0,0.0,0.0,0.0,0.0,-0.90202948088,9.46772057253,2.09835505234,0.0,0.0,0.0,0.0,0.0,0.0,0.0,0.0,0.0
1430083615578345719,66,1430083615575651886,,0.0,0.0,0.0,0.0,0.0,0.0,0.0,0.0,0.0,0.0,0.0,0.0,0.0,-0.0197079931706,0.0138488600659,-0.0191753447066,0.0,0.0,0.0,0.0,0.0,0.0,0.0,0.0,0.0,-0.90202948088,9.48686178167,2.01461226234,0.0,0.0,0.0,0.0,0.0,0.0,0.0,0.0,0.0
1430083655578272016,67,1430083655575605183,,0.0,0.0,0.0,0.0,0.0,0.0,0.0,0.0,0.0,0.0,0.0,0.0,0.0,-0.0202406416347,0.0117182662096,-0.0186426962425,0.0,0.0,0.0,0.0,0.0,0.0,0.0,0.0,0.0,-0.933133945738,9.43422345653,1.95001068148,0.0,0.0,0.0,0.0,0.0,0.0,0.0,0.0,0.0
1430083695578327062,68,1430083695575626021,,0.0,0.0,0.0,0.0,0.0,0.0,0.0,0.0,0.0,0.0,0.0,0.0,0.0,-0.0181100477784,0.0117182662096,-0.0213059385628,0.0,0.0,0.0,0.0,0.0,0.0,0.0,0.0,0.0,-0.894851527451,9.41986754967,2.03375347148,0.0,0.0,0.0,0.0,0.0,0.0,0.0,0.0,0.0
1430083735578366275,69,1430083735575638442,,0.0,0.0,0.0,0.0,0.0,0.0,0.0,0.0,0.0,0.0,0.0,0.0,0.0,-0.0181100477784,0.0117182662096,-0.0186426962425,0.0,0.0,0.0,0.0,0.0,0.0,0.0,0.0,0.0,-0.88528092288,9.42465285195,2.01700491348,0.0,0.0,0.0,0.0,0.0,0.0,0.0,0.0,0.0
1430083775578542114,70,1430083775575603989,,0.0,0.0,0.0,0.0,0.0,0.0,0.0,0.0,0.0,0.0,0.0,0.0,0.0,-0.0197079931706,0.0138488600659,-0.0159794539221,0.0,0.0,0.0,0.0,0.0,0.0,0.0,0.0,0.0,-0.837427900021,9.48446913053,2.01700491348,0.0,0.0,0.0,0.0,0.0,0.0,0.0,0.0,0.0
1430083815579121327,71,1430083815576539952,,0.0,0.0,0.0,0.0,0.0,0.0,0.0,0.0,0.0,0.0,0.0,0.0,0.0,-0.0181100477784,0.0154468054581,-0.0186426962425,0.0,0.0,0.0,0.0,0.0,0.0,0.0,0.0,0.0,-0.832642597736,9.53232215339,2.00264900662,0.0,0.0,0.0,0.0,0.0,0.0,0.0,0.0,0.0
1430083855578273915,72,1430083855575614956,,0.0,0.0,0.0,0.0,0.0,0.0,0.0,0.0,0.0,0.0,0.0,0.0,0.0,-0.0175773993144,0.0117182662096,-0.0197079931706,0.0,0.0,0.0,0.0,0.0,0.0,0.0,0.0,0.0,-0.899636829737,9.56821192053,2.01700491348,0.0,0.0,0.0,0.0,0.0,0.0,0.0,0.0,0.0
1430083895578318503,73,1430083895575618836,,0.0,0.0,0.0,0.0,0.0,0.0,0.0,0.0,0.0,0.0,0.0,0.0,0.0,-0.0154468054581,0.0106529692814,-0.0186426962425,0.0,0.0,0.0,0.0,0.0,0.0,0.0,0.0,0.0,-0.909207434309,9.44618671224,2.03375347148,0.0,0.0,0.0,0.0,0.0,0.0,0.0,0.0,0.0
1430083935578278883,74,1430083935575611008,,0.0,0.0,0.0,0.0,0.0,0.0,0.0,0.0,0.0,0.0,0.0,0.0,0.0,-0.0186426962425,0.0133162116018,-0.0197079931706,0.0,0.0,0.0,0.0,0.0,0.0,0.0,0.0,0.0,-0.839820551164,9.41508224738,2.07203588977,0.0,0.0,0.0,0.0,0.0,0.0,0.0,0.0,0.0
1430083975578343554,75,1430083975575614012,,0.0,0.0,0.0,0.0,0.0,0.0,0.0,0.0,0.0,0.0,0.0,0.0,0.0,-0.0181100477784,0.00852237542514,-0.0186426962425,0.0,0.0,0.0,0.0,0.0,0.0,0.0,0.0,0.0,-0.880495620594,9.47489852596,2.07203588977,0.0,0.0,0.0,0.0,0.0,0.0,0.0,0.0,0.0
1430084015578371809,76,1430084015575623892,,0.0,0.0,0.0,0.0,0.0,0.0,0.0,0.0,0.0,0.0,0.0,0.0,0.0,-0.0186426962425,0.00905502388921,-0.0202406416347,0.0,0.0,0.0,0.0,0.0,0.0,0.0,0.0,0.0,-0.904422132023,9.40551164281,2.03136082034,0.0,0.0,0.0,0.0,0.0,0.0,0.0,0.0,0.0
1430084055578387564,77,1430084055575611689,,0.0,0.0,0.0,0.0,0.0,0.0,0.0,0.0,0.0,0.0,0.0,0.0,0.0,-0.0165121023862,0.0133162116018,-0.0165121023862,0.0,0.0,0.0,0.0,0.0,0.0,0.0,0.0,0.0,-0.930741294595,9.44857936338,2.10553300577,0.0,0.0,0.0,0.0,0.0,0.0,0.0,0.0,0.0
1430084095578296652,78,1430084095575621235,,0.0,0.0,0.0,0.0,0.0,0.0,0.0,0.0,0.0,0.0,0.0,0.0,0.0,-0.0181100477784,0.0127835631377,-0.0170447508503,0.0,0.0,0.0,0.0,0.0,0.0,0.0,0.0,0.0,-0.894851527451,9.45336466567,2.01461226234,0.0,0.0,0.0,0.0,0.0,0.0,0.0,0.0,0.0
1430084135578447198,79,1430084135575746865,,0.0,0.0,0.0,0.0,0.0,0.0,0.0,0.0,0.0,0.0,0.0,0.0,0.0,-0.0175773993144,0.0106529692814,-0.0186426962425,0.0,0.0,0.0,0.0,0.0,0.0,0.0,0.0,0.0,-0.878102969451,9.48207647938,2.11031830805,0.0,0.0,0.0,0.0,0.0,0.0,0.0,0.0,0.0
1430084175578350245,80,1430084175575644203,,0.0,0.0,0.0,0.0,0.0,0.0,0.0,0.0,0.0,0.0,0.0,0.0,0.0,-0.0186426962425,0.0138488600659,-0.0197079931706,0.0,0.0,0.0,0.0,0.0,0.0,0.0,0.0,0.0,-0.887673574023,9.40311899167,2.1127109592,0.0,0.0,0.0,0.0,0.0,0.0,0.0,0.0,0.0
1430084215578311916,81,1430084215575615624,,0.0,0.0,0.0,0.0,0.0,0.0,0.0,0.0,0.0,0.0,0.0,0.0,0.0,-0.0175773993144,0.0133162116018,-0.0170447508503,0.0,0.0,0.0,0.0,0.0,0.0,0.0,0.0,0.0,-0.858961760308,9.44857936338,2.08399914548,0.0,0.0,0.0,0.0,0.0,0.0,0.0,0.0,0.0
1430084255581659087,82,1430084255575622504,,0.0,0.0,0.0,0.0,0.0,0.0,0.0,0.0,0.0,0.0,0.0,0.0,0.0,-0.0181100477784,0.0111856177455,-0.0202406416347,0.0,0.0,0.0,0.0,0.0,0.0,0.0,0.0,0.0,-0.911600085452,9.4605426191,2.10553300577,0.0,0.0,0.0,0.0,0.0,0.0,0.0,0.0,0.0
1430084295578301300,83,1430084295575613634,,0.0,0.0,0.0,0.0,0.0,0.0,0.0,0.0,0.0,0.0,0.0,0.0,0.0,-0.0175773993144,0.0117182662096,-0.0186426962425,0.0,0.0,0.0,0.0,0.0,0.0,0.0,0.0,0.0,-0.866139713736,9.43183080538,2.12467421491,0.0,0.0,0.0,0.0,0.0,0.0,0.0,0.0,0.0
1430084335578504139,84,1430084335575966055,,0.0,0.0,0.0,0.0,0.0,0.0,0.0,0.0,0.0,0.0,0.0,0.0,0.0,-0.0181100477784,0.0138488600659,-0.0175773993144,0.0,0.0,0.0,0.0,0.0,0.0,0.0,0.0,0.0,-0.935526596881,9.47489852596,2.10314035463,0.0,0.0,0.0,0.0,0.0,0.0,0.0,0.0,0.0
1430084375579030102,85,1430084375575706810,,0.0,0.0,0.0,0.0,0.0,0.0,0.0,0.0,0.0,0.0,0.0,0.0,0.0,-0.0175773993144,0.0133162116018,-0.0202406416347,0.0,0.0,0.0,0.0,0.0,0.0,0.0,0.0,0.0,-0.918778038881,9.48925443281,2.03136082034,0.0,0.0,0.0,0.0,0.0,0.0,0.0,0.0,0.0
1430084415578327940,86,1430084415575631148,,0.0,0.0,0.0,0.0,0.0,0.0,0.0,0.0,0.0,0.0,0.0,0.0,0.0,-0.0197079931706,0.0138488600659,-0.0170447508503,0.0,0.0,0.0,0.0,0.0,0.0,0.0,0.0,0.0,-0.990557573168,9.49164708396,2.07442854091,0.0,0.0,0.0,0.0,0.0,0.0,0.0,0.0,0.0
1430084455578314361,87,1430084455575598903,,0.0,0.0,0.0,0.0,0.0,0.0,0.0,0.0,0.0,0.0,0.0,0.0,0.0,-0.0181100477784,0.0143815085299,-0.0165121023862,0.0,0.0,0.0,0.0,0.0,0.0,0.0,0.0,0.0,-0.918778038881,9.47489852596,1.95240333262,0.0,0.0,0.0,0.0,0.0,0.0,0.0,0.0,0.0
1430084495578665616,88,1430084495575615491,,0.0,0.0,0.0,0.0,0.0,0.0,0.0,0.0,0.0,0.0,0.0,0.0,0.0,-0.0197079931706,0.0122509146736,-0.0186426962425,0.0,0.0,0.0,0.0,0.0,0.0,0.0,0.0,0.0,-0.913992736595,9.42226020081,2.08639179662,0.0,0.0,0.0,0.0,0.0,0.0,0.0,0.0,0.0
1430084535578291037,89,1430084535575618121,,0.0,0.0,0.0,0.0,0.0,0.0,0.0,0.0,0.0,0.0,0.0,0.0,0.0,-0.0191753447066,0.0122509146736,-0.0170447508503,0.0,0.0,0.0,0.0,0.0,0.0,0.0,0.0,0.0,-0.90202948088,9.46772057253,2.0624652852,0.0,0.0,0.0,0.0,0.0,0.0,0.0,0.0,0.0
1430084575578606501,90,1430084575575595251,,0.0,0.0,0.0,0.0,0.0,0.0,0.0,0.0,0.0,0.0,0.0,0.0,0.0,-0.014914156994,0.0117182662096,-0.0170447508503,0.0,0.0,0.0,0.0,0.0,0.0,0.0,0.0,0.0,-0.870925016022,9.41747489853,2.04810937834,0.0,0.0,0.0,0.0,0.0,0.0,0.0,0.0,0.0
1430084615578319839,91,1430084615575637422,,0.0,0.0,0.0,0.0,0.0,0.0,0.0,0.0,0.0,0.0,0.0,0.0,0.0,-0.0181100477784,0.0133162116018,-0.0186426962425,0.0,0.0,0.0,0.0,0.0,0.0,0.0,0.0,0.0,-0.928348643452,9.52275154881,2.00504165777,0.0,0.0,0.0,0.0,0.0,0.0,0.0,0.0,0.0
1430084655579030718,92,1430084655575597885,,0.0,0.0,0.0,0.0,0.0,0.0,0.0,0.0,0.0,0.0,0.0,0.0,0.0,-0.0202406416347,0.0122509146736,-0.0197079931706,0.0,0.0,0.0,0.0,0.0,0.0,0.0,0.0,0.0,-0.811108737449,9.39115573595,1.91172826319,0.0,0.0,0.0,0.0,0.0,0.0,0.0,0.0,0.0
1430084695578301223,93,1430084695575592098,,0.0,0.0,0.0,0.0,0.0,0.0,0.0,0.0,0.0,0.0,0.0,0.0,0.0,-0.0170447508503,0.0127835631377,-0.0181100477784,0.0,0.0,0.0,0.0,0.0,0.0,0.0,0.0,0.0,-0.952275154881,9.51557359539,2.07442854091,0.0,0.0,0.0,0.0,0.0,0.0,0.0,0.0,0.0
1430084735579067061,94,1430084735575580061,,0.0,0.0,0.0,0.0,0.0,0.0,0.0,0.0,0.0,0.0,0.0,0.0,0.0,-0.0191753447066,0.0133162116018,-0.0186426962425,0.0,0.0,0.0,0.0,0.0,0.0,0.0,0.0,0.0,-0.890066225166,9.44140140996,2.05289468062,0.0,0.0,0.0,0.0,0.0,0.0,0.0,0.0,0.0
1430084775578315108,95,1430084775575624649,,0.0,0.0,0.0,0.0,0.0,0.0,0.0,0.0,0.0,0.0,0.0,0.0,0.0,-0.0191753447066,0.0154468054581,-0.0191753447066,0.0,0.0,0.0,0.0,0.0,0.0,0.0,0.0,0.0,-0.935526596881,9.5107882931,2.00264900662,0.0,0.0,0.0,0.0,0.0,0.0,0.0,0.0,0.0
1430084815578228487,96,1430084815575585529,,0.0,0.0,0.0,0.0,0.0,0.0,0.0,0.0,0.0,0.0,0.0,0.0,0.0,-0.0181100477784,0.0122509146736,-0.0159794539221,0.0,0.0,0.0,0.0,0.0,0.0,0.0,0.0,0.0,-0.904422132023,9.43900875881,2.00264900662,0.0,0.0,0.0,0.0,0.0,0.0,0.0,0.0,0.0
1430084855579147992,97,1430084855575611826,,0.0,0.0,0.0,0.0,0.0,0.0,0.0,0.0,0.0,0.0,0.0,0.0,0.0,-0.0175773993144,0.0122509146736,-0.0181100477784,0.0,0.0,0.0,0.0,0.0,0.0,0.0,0.0,0.0,-0.933133945738,9.48207647938,2.04093142491,0.0,0.0,0.0,0.0,0.0,0.0,0.0,0.0,0.0
1430084895579440372,98,1430084895575597664,,0.0,0.0,0.0,0.0,0.0,0.0,0.0,0.0,0.0,0.0,0.0,0.0,0.0,-0.0207732900988,0.0133162116018,-0.0202406416347,0.0,0.0,0.0,0.0,0.0,0.0,0.0,0.0,0.0,-0.825464644307,9.45097201453,2.0457167272,0.0,0.0,0.0,0.0,0.0,0.0,0.0,0.0,0.0
1430084935578289002,99,1430084935575603752,,0.0,0.0,0.0,0.0,0.0,0.0,0.0,0.0,0.0,0.0,0.0,0.0,0.0,-0.0181100477784,0.0133162116018,-0.0165121023862,0.0,0.0,0.0,0.0,0.0,0.0,0.0,0.0,0.0,-0.882888271737,9.48207647938,2.0457167272,0.0,0.0,0.0,0.0,0.0,0.0,0.0,0.0,0.0
1430084975578389257,100,1430084975575627590,,0.0,0.0,0.0,0.0,0.0,0.0,0.0,0.0,0.0,0.0,0.0,0.0,0.0,-0.0175773993144,0.0127835631377,-0.0159794539221,0.0,0.0,0.0,0.0,0.0,0.0,0.0,0.0,0.0,-0.894851527451,9.4605426191,2.02179021577,0.0,0.0,0.0,0.0,0.0,0.0,0.0,0.0,0.0
1430085015578576136,101,1430085015575615636,,0.0,0.0,0.0,0.0,0.0,0.0,0.0,0.0,0.0,0.0,0.0,0.0,0.0,-0.0191753447066,0.0117182662096,-0.0186426962425,0.0,0.0,0.0,0.0,0.0,0.0,0.0,0.0,0.0,-0.918778038881,9.44140140996,2.09117709891,0.0,0.0,0.0,0.0,0.0,0.0,0.0,0.0,0.0
1430085055578256683,102,1430085055575580183,,0.0,0.0,0.0,0.0,0.0,0.0,0.0,0.0,0.0,0.0,0.0,0.0,0.0,-0.0165121023862,0.00905502388921,-0.0170447508503,0.0,0.0,0.0,0.0,0.0,0.0,0.0,0.0,0.0,-0.794360179449,9.46532792138,1.97872249519,0.0,0.0,0.0,0.0,0.0,0.0,0.0,0.0,0.0
1430085095578223396,103,1430085095575559479,,0.0,0.0,0.0,0.0,0.0,0.0,0.0,0.0,0.0,0.0,0.0,0.0,0.0,-0.014914156994,0.0111856177455,-0.0181100477784,0.0,0.0,0.0,0.0,0.0,0.0,0.0,0.0,0.0,-0.887673574023,9.47968382824,2.0792138432,0.0,0.0,0.0,0.0,0.0,0.0,0.0,0.0,0.0
1430085135578216401,104,1430085135575567817,,0.0,0.0,0.0,0.0,0.0,0.0,0.0,0.0,0.0,0.0,0.0,0.0,0.0,-0.0181100477784,0.0138488600659,-0.0170447508503,0.0,0.0,0.0,0.0,0.0,0.0,0.0,0.0,0.0,-0.866139713736,9.43422345653,2.05050202948,0.0,0.0,0.0,0.0,0.0,0.0,0.0,0.0,0.0
1430085175578325697,105,1430085175575633030,,0.0,0.0,0.0,0.0,0.0,0.0,0.0,0.0,0.0,0.0,0.0,0.0,0.0,-0.0197079931706,0.0127835631377,-0.0186426962425,0.0,0.0,0.0,0.0,0.0,0.0,0.0,0.0,0.0,-0.969023712882,9.4437940611,2.0457167272,0.0,0.0,0.0,0.0,0.0,0.0,0.0,0.0,0.0
1430085215579229494,106,1430085215575606785,,0.0,0.0,0.0,0.0,0.0,0.0,0.0,0.0,0.0,0.0,0.0,0.0,0.0,-0.0170447508503,0.0127835631377,-0.0186426962425,0.0,0.0,0.0,0.0,0.0,0.0,0.0,0.0,0.0,-0.925955992309,9.44140140996,2.0959624012,0.0,0.0,0.0,0.0,0.0,0.0,0.0,0.0,0.0
1430085255578479207,107,1430085255575916957,,0.0,0.0,0.0,0.0,0.0,0.0,0.0,0.0,0.0,0.0,0.0,0.0,0.0,-0.0181100477784,0.0101203208174,-0.022371235491,0.0,0.0,0.0,0.0,0.0,0.0,0.0,0.0,0.0,-0.873317667165,9.50839564196,2.05528733177,0.0,0.0,0.0,0.0,0.0,0.0,0.0,0.0,0.0
1430085295578485961,108,1430085295575581628,,0.0,0.0,0.0,0.0,0.0,0.0,0.0,0.0,0.0,0.0,0.0,0.0,0.0,-0.0181100477784,0.0127835631377,-0.0191753447066,0.0,0.0,0.0,0.0,0.0,0.0,0.0,0.0,0.0,-0.890066225166,9.51318094424,2.08160649434,0.0,0.0,0.0,0.0,0.0,0.0,0.0,0.0,0.0
1430085335578215091,109,1430085335575571049,,0.0,0.0,0.0,0.0,0.0,0.0,0.0,0.0,0.0,0.0,0.0,0.0,0.0,-0.0181100477784,0.0138488600659,-0.0181100477784,0.0,0.0,0.0,0.0,0.0,0.0,0.0,0.0,0.0,-0.916385387738,9.43183080538,2.05050202948,0.0,0.0,0.0,0.0,0.0,0.0,0.0,0.0,0.0
1430085375578272888,110,1430085375575606263,,0.0,0.0,0.0,0.0,0.0,0.0,0.0,0.0,0.0,0.0,0.0,0.0,0.0,-0.0165121023862,0.0133162116018,-0.0181100477784,0.0,0.0,0.0,0.0,0.0,0.0,0.0,0.0,0.0,-0.899636829737,9.48686178167,1.97872249519,0.0,0.0,0.0,0.0,0.0,0.0,0.0,0.0,0.0
1430085415578359684,111,1430085415575638267,,0.0,0.0,0.0,0.0,0.0,0.0,0.0,0.0,0.0,0.0,0.0,0.0,0.0,-0.0159794539221,0.0111856177455,-0.0181100477784,0.0,0.0,0.0,0.0,0.0,0.0,0.0,0.0,0.0,-0.909207434309,9.45814996796,1.95001068148,0.0,0.0,0.0,0.0,0.0,0.0,0.0,0.0,0.0
1430085455578350855,112,1430085455575621064,,0.0,0.0,0.0,0.0,0.0,0.0,0.0,0.0,0.0,0.0,0.0,0.0,0.0,-0.0154468054581,0.0138488600659,-0.0165121023862,0.0,0.0,0.0,0.0,0.0,0.0,0.0,0.0,0.0,-0.892458876308,9.40790429395,2.19166844691,0.0,0.0,0.0,0.0,0.0,0.0,0.0,0.0,0.0
1430085495578235985,113,1430085495575577235,,0.0,0.0,0.0,0.0,0.0,0.0,0.0,0.0,0.0,0.0,0.0,0.0,0.0,-0.0186426962425,0.0154468054581,-0.0197079931706,0.0,0.0,0.0,0.0,0.0,0.0,0.0,0.0,0.0,-0.897244178594,9.51796624653,1.92369151891,0.0,0.0,0.0,0.0,0.0,0.0,0.0,0.0,0.0
1430085535578332990,114,1430085535575608532,,0.0,0.0,0.0,0.0,0.0,0.0,0.0,0.0,0.0,0.0,0.0,0.0,0.0,-0.0175773993144,0.0111856177455,-0.0186426962425,0.0,0.0,0.0,0.0,0.0,0.0,0.0,0.0,0.0,-0.978594317454,9.44857936338,2.01461226234,0.0,0.0,0.0,0.0,0.0,0.0,0.0,0.0,0.0
1430085575578202536,115,1430085575575567536,,0.0,0.0,0.0,0.0,0.0,0.0,0.0,0.0,0.0,0.0,0.0,0.0,0.0,-0.0186426962425,0.0138488600659,-0.0175773993144,0.0,0.0,0.0,0.0,0.0,0.0,0.0,0.0,0.0,-0.913992736595,9.45097201453,2.06485793634,0.0,0.0,0.0,0.0,0.0,0.0,0.0,0.0,0.0
1430085615578246000,116,1430085615575571208,,0.0,0.0,0.0,0.0,0.0,0.0,0.0,0.0,0.0,0.0,0.0,0.0,0.0,-0.0186426962425,0.0122509146736,-0.0181100477784,0.0,0.0,0.0,0.0,0.0,0.0,0.0,0.0,0.0,-0.921170690023,9.41508224738,2.03136082034,0.0,0.0,0.0,0.0,0.0,0.0,0.0,0.0,0.0
1430085655578490921,117,1430085655575574421,,0.0,0.0,0.0,0.0,0.0,0.0,0.0,0.0,0.0,0.0,0.0,0.0,0.0,-0.0165121023862,0.0133162116018,-0.0181100477784,0.0,0.0,0.0,0.0,0.0,0.0,0.0,0.0,0.0,-0.856569109165,9.47250587481,1.98350779748,0.0,0.0,0.0,0.0,0.0,0.0,0.0,0.0,0.0
1430085695578326259,118,1430085695575599009,,0.0,0.0,0.0,0.0,0.0,0.0,0.0,0.0,0.0,0.0,0.0,0.0,0.0,-0.0154468054581,0.0127835631377,-0.0191753447066,0.0,0.0,0.0,0.0,0.0,0.0,0.0,0.0,0.0,-0.870925016022,9.43183080538,2.04810937834,0.0,0.0,0.0,0.0,0.0,0.0,0.0,0.0,0.0
1430085735578303597,119,1430085735575617847,,0.0,0.0,0.0,0.0,0.0,0.0,0.0,0.0,0.0,0.0,0.0,0.0,0.0,-0.0202406416347,0.0138488600659,-0.0170447508503,0.0,0.0,0.0,0.0,0.0,0.0,0.0,0.0,0.0,-0.928348643452,9.48686178167,2.06964323862,0.0,0.0,0.0,0.0,0.0,0.0,0.0,0.0,0.0
1430085775578345644,120,1430085775575626185,,0.0,0.0,0.0,0.0,0.0,0.0,0.0,0.0,0.0,0.0,0.0,0.0,0.0,-0.0191753447066,0.0143815085299,-0.0197079931706,0.0,0.0,0.0,0.0,0.0,0.0,0.0,0.0,0.0,-0.899636829737,9.41986754967,2.05528733177,0.0,0.0,0.0,0.0,0.0,0.0,0.0,0.0,0.0
1430085815579533065,121,1430085815575609315,,0.0,0.0,0.0,0.0,0.0,0.0,0.0,0.0,0.0,0.0,0.0,0.0,0.0,-0.0181100477784,0.0127835631377,-0.0175773993144,0.0,0.0,0.0,0.0,0.0,0.0,0.0,0.0,0.0,-0.916385387738,9.3935483871,1.96436658834,0.0,0.0,0.0,0.0,0.0,0.0,0.0,0.0,0.0
1430085855578265820,122,1430085855575582570,,0.0,0.0,0.0,0.0,0.0,0.0,0.0,0.0,0.0,0.0,0.0,0.0,0.0,-0.0181100477784,0.0159794539221,-0.0202406416347,0.0,0.0,0.0,0.0,0.0,0.0,0.0,0.0,0.0,-0.952275154881,9.45575731681,2.01461226234,0.0,0.0,0.0,0.0,0.0,0.0,0.0,0.0,0.0
1430085895578358783,123,1430085895575572658,,0.0,0.0,0.0,0.0,0.0,0.0,0.0,0.0,0.0,0.0,0.0,0.0,0.0,-0.0175773993144,0.014914156994,-0.0191753447066,0.0,0.0,0.0,0.0,0.0,0.0,0.0,0.0,0.0,-0.945097201453,9.4437940611,2.04332407605,0.0,0.0,0.0,0.0,0.0,0.0,0.0,0.0,0.0
1430085935578386038,124,1430085935575608204,,0.0,0.0,0.0,0.0,0.0,0.0,0.0,0.0,0.0,0.0,0.0,0.0,0.0,-0.0191753447066,0.0127835631377,-0.0186426962425,0.0,0.0,0.0,0.0,0.0,0.0,0.0,0.0,0.0,-0.916385387738,9.44140140996,2.0457167272,0.0,0.0,0.0,0.0,0.0,0.0,0.0,0.0,0.0
1430085975578374876,125,1430085975575614584,,0.0,0.0,0.0,0.0,0.0,0.0,0.0,0.0,0.0,0.0,0.0,0.0,0.0,-0.0181100477784,0.0127835631377,-0.0165121023862,0.0,0.0,0.0,0.0,0.0,0.0,0.0,0.0,0.0,-0.842213202307,9.5275368511,2.04332407605,0.0,0.0,0.0,0.0,0.0,0.0,0.0,0.0,0.0
1430086015578795881,126,1430086015575693964,,0.0,0.0,0.0,0.0,0.0,0.0,0.0,0.0,0.0,0.0,0.0,0.0,0.0,-0.0191753447066,0.0138488600659,-0.0191753447066,0.0,0.0,0.0,0.0,0.0,0.0,0.0,0.0,0.0,-0.890066225166,9.47250587481,1.99547105319,0.0,0.0,0.0,0.0,0.0,0.0,0.0,0.0,0.0
1430086055578449885,127,1430086055575711510,,0.0,0.0,0.0,0.0,0.0,0.0,0.0,0.0,0.0,0.0,0.0,0.0,0.0,-0.0175773993144,0.0122509146736,-0.0191753447066,0.0,0.0,0.0,0.0,0.0,0.0,0.0,0.0,0.0,-0.866139713736,9.47968382824,1.98111514634,0.0,0.0,0.0,0.0,0.0,0.0,0.0,0.0,0.0
1430086095578322890,128,1430086095575616473,,0.0,0.0,0.0,0.0,0.0,0.0,0.0,0.0,0.0,0.0,0.0,0.0,0.0,-0.0191753447066,0.0106529692814,-0.0181100477784,0.0,0.0,0.0,0.0,0.0,0.0,0.0,0.0,0.0,-0.866139713736,9.46532792138,2.13185216834,0.0,0.0,0.0,0.0,0.0,0.0,0.0,0.0,0.0
1430086135578516937,129,1430086135575592187,,0.0,0.0,0.0,0.0,0.0,0.0,0.0,0.0,0.0,0.0,0.0,0.0,0.0,-0.0175773993144,0.0127835631377,-0.0159794539221,0.0,0.0,0.0,0.0,0.0,0.0,0.0,0.0,0.0,-0.849391155736,9.44618671224,2.12706686605,0.0,0.0,0.0,0.0,0.0,0.0,0.0,0.0,0.0
1430086175580661483,130,1430086175576243816,,0.0,0.0,0.0,0.0,0.0,0.0,0.0,0.0,0.0,0.0,0.0,0.0,0.0,-0.0165121023862,0.0122509146736,-0.0159794539221,0.0,0.0,0.0,0.0,0.0,0.0,0.0,0.0,0.0,-0.880495620594,9.46293527024,2.0457167272,0.0,0.0,0.0,0.0,0.0,0.0,0.0,0.0,0.0
1430086215578290738,131,1430086215575616113,,0.0,0.0,0.0,0.0,0.0,0.0,0.0,0.0,0.0,0.0,0.0,0.0,0.0,-0.0191753447066,0.0143815085299,-0.0191753447066,0.0,0.0,0.0,0.0,0.0,0.0,0.0,0.0,0.0,-0.858961760308,9.50361033967,2.04810937834,0.0,0.0,0.0,0.0,0.0,0.0,0.0,0.0,0.0
1430086255578327117,132,1430086255575630909,,0.0,0.0,0.0,0.0,0.0,0.0,0.0,0.0,0.0,0.0,0.0,0.0,0.0,-0.0181100477784,0.0117182662096,-0.0191753447066,0.0,0.0,0.0,0.0,0.0,0.0,0.0,0.0,0.0,-0.961845759453,9.45575731681,2.14142277291,0.0,0.0,0.0,0.0,0.0,0.0,0.0,0.0,0.0
1430086295578712331,133,1430086295575712081,,0.0,0.0,0.0,0.0,0.0,0.0,0.0,0.0,0.0,0.0,0.0,0.0,0.0,-0.0175773993144,0.0133162116018,-0.0186426962425,0.0,0.0,0.0,0.0,0.0,0.0,0.0,0.0,0.0,-0.918778038881,9.41268959624,2.01461226234,0.0,0.0,0.0,0.0,0.0,0.0,0.0,0.0,0.0
1430086335581892460,134,1430086335575694044,,0.0,0.0,0.0,0.0,0.0,0.0,0.0,0.0,0.0,0.0,0.0,0.0,0.0,-0.0191753447066,0.0133162116018,-0.0213059385628,0.0,0.0,0.0,0.0,0.0,0.0,0.0,0.0,0.0,-0.937919248024,9.39115573595,2.03136082034,0.0,0.0,0.0,0.0,0.0,0.0,0.0,0.0,0.0
1430086375578553465,135,1430086375575577382,,0.0,0.0,0.0,0.0,0.0,0.0,0.0,0.0,0.0,0.0,0.0,0.0,0.0,-0.0143815085299,0.0143815085299,-0.0165121023862,0.0,0.0,0.0,0.0,0.0,0.0,0.0,0.0,0.0,-0.861354411451,9.43661610767,2.01461226234,0.0,0.0,0.0,0.0,0.0,0.0,0.0,0.0,0.0
1430086415578302803,136,1430086415575611387,,0.0,0.0,0.0,0.0,0.0,0.0,0.0,0.0,0.0,0.0,0.0,0.0,0.0,-0.0170447508503,0.0111856177455,-0.0175773993144,0.0,0.0,0.0,0.0,0.0,0.0,0.0,0.0,0.0,-0.904422132023,9.5275368511,1.99786370434,0.0,0.0,0.0,0.0,0.0,0.0,0.0,0.0,0.0
1430086455578308266,137,1430086455575619683,,0.0,0.0,0.0,0.0,0.0,0.0,0.0,0.0,0.0,0.0,0.0,0.0,0.0,-0.0170447508503,0.0117182662096,-0.0165121023862,0.0,0.0,0.0,0.0,0.0,0.0,0.0,0.0,0.0,-0.90202948088,9.4605426191,2.07682119205,0.0,0.0,0.0,0.0,0.0,0.0,0.0,0.0,0.0
1430086495578248938,138,1430086495575566396,,0.0,0.0,0.0,0.0,0.0,0.0,0.0,0.0,0.0,0.0,0.0,0.0,0.0,-0.0191753447066,0.0138488600659,-0.0165121023862,0.0,0.0,0.0,0.0,0.0,0.0,0.0,0.0,0.0,-0.894851527451,9.50839564196,2.04332407605,0.0,0.0,0.0,0.0,0.0,0.0,0.0,0.0,0.0
1430086535579210318,139,1430086535575581068,,0.0,0.0,0.0,0.0,0.0,0.0,0.0,0.0,0.0,0.0,0.0,0.0,0.0,-0.0186426962425,0.0133162116018,-0.0191753447066,0.0,0.0,0.0,0.0,0.0,0.0,0.0,0.0,0.0,-0.894851527451,9.45336466567,2.05528733177,0.0,0.0,0.0,0.0,0.0,0.0,0.0,0.0,0.0
1430086575578303656,140,1430086575575621197,,0.0,0.0,0.0,0.0,0.0,0.0,0.0,0.0,0.0,0.0,0.0,0.0,0.0,-0.0175773993144,0.0111856177455,-0.0197079931706,0.0,0.0,0.0,0.0,0.0,0.0,0.0,0.0,0.0,-0.880495620594,9.4940397351,2.16774193548,0.0,0.0,0.0,0.0,0.0,0.0,0.0,0.0,0.0
1430086615578316160,141,1430086615575621202,,0.0,0.0,0.0,0.0,0.0,0.0,0.0,0.0,0.0,0.0,0.0,0.0,0.0,-0.0165121023862,0.0154468054581,-0.0186426962425,0.0,0.0,0.0,0.0,0.0,0.0,0.0,0.0,0.0,-0.933133945738,9.42943815424,1.92369151891,0.0,0.0,0.0,0.0,0.0,0.0,0.0,0.0,0.0
1430086655578505623,142,1430086655575605082,,0.0,0.0,0.0,0.0,0.0,0.0,0.0,0.0,0.0,0.0,0.0,0.0,0.0,-0.0186426962425,0.0138488600659,-0.0175773993144,0.0,0.0,0.0,0.0,0.0,0.0,0.0,0.0,0.0,-0.916385387738,9.48207647938,2.12706686605,0.0,0.0,0.0,0.0,0.0,0.0,0.0,0.0,0.0
1430086695578273962,143,1430086695575618920,,0.0,0.0,0.0,0.0,0.0,0.0,0.0,0.0,0.0,0.0,0.0,0.0,0.0,-0.0175773993144,0.0106529692814,-0.0207732900988,0.0,0.0,0.0,0.0,0.0,0.0,0.0,0.0,0.0,-0.887673574023,9.41268959624,2.05289468062,0.0,0.0,0.0,0.0,0.0,0.0,0.0,0.0,0.0
1430086735578295675,144,1430086735575599883,,0.0,0.0,0.0,0.0,0.0,0.0,0.0,0.0,0.0,0.0,0.0,0.0,0.0,-0.0191753447066,0.0127835631377,-0.0197079931706,0.0,0.0,0.0,0.0,0.0,0.0,0.0,0.0,0.0,-0.904422132023,9.44140140996,2.00025635548,0.0,0.0,0.0,0.0,0.0,0.0,0.0,0.0,0.0
1430086775578372804,145,1430086775575635471,,0.0,0.0,0.0,0.0,0.0,0.0,0.0,0.0,0.0,0.0,0.0,0.0,0.0,-0.0202406416347,0.0106529692814,-0.0191753447066,0.0,0.0,0.0,0.0,0.0,0.0,0.0,0.0,0.0,-0.882888271737,9.46532792138,2.06964323862,0.0,0.0,0.0,0.0,0.0,0.0,0.0,0.0,0.0
1430086815578415476,146,1430086815575721601,,0.0,0.0,0.0,0.0,0.0,0.0,0.0,0.0,0.0,0.0,0.0,0.0,0.0,-0.0186426962425,0.0143815085299,-0.0181100477784,0.0,0.0,0.0,0.0,0.0,0.0,0.0,0.0,0.0,-0.887673574023,9.46532792138,1.99068575091,0.0,0.0,0.0,0.0,0.0,0.0,0.0,0.0,0.0
1430086855578357689,147,1430086855575622064,,0.0,0.0,0.0,0.0,0.0,0.0,0.0,0.0,0.0,0.0,0.0,0.0,0.0,-0.0186426962425,0.0111856177455,-0.0191753447066,0.0,0.0,0.0,0.0,0.0,0.0,0.0,0.0,0.0,-0.923563341166,9.52035889767,2.01221961119,0.0,0.0,0.0,0.0,0.0,0.0,0.0,0.0,0.0
1430086895578668360,148,1430086895575620152,,0.0,0.0,0.0,0.0,0.0,0.0,0.0,0.0,0.0,0.0,0.0,0.0,0.0,-0.0175773993144,0.0122509146736,-0.0197079931706,0.0,0.0,0.0,0.0,0.0,0.0,0.0,0.0,0.0,-0.892458876308,9.45575731681,1.91172826319,0.0,0.0,0.0,0.0,0.0,0.0,0.0,0.0,0.0
1430086935578293865,149,1430086935575607157,,0.0,0.0,0.0,0.0,0.0,0.0,0.0,0.0,0.0,0.0,0.0,0.0,0.0,-0.0186426962425,0.0133162116018,-0.0191753447066,0.0,0.0,0.0,0.0,0.0,0.0,0.0,0.0,0.0,-0.880495620594,9.48207647938,1.94044007691,0.0,0.0,0.0,0.0,0.0,0.0,0.0,0.0,0.0
1430086975578744828,150,1430086975575674703,,0.0,0.0,0.0,0.0,0.0,0.0,0.0,0.0,0.0,0.0,0.0,0.0,0.0,-0.0191753447066,0.0101203208174,-0.0197079931706,0.0,0.0,0.0,0.0,0.0,0.0,0.0,0.0,0.0,-0.90202948088,9.45814996796,2.01221961119,0.0,0.0,0.0,0.0,0.0,0.0,0.0,0.0,0.0
1430087015578412916,151,1430087015575704000,,0.0,0.0,0.0,0.0,0.0,0.0,0.0,0.0,0.0,0.0,0.0,0.0,0.0,-0.0181100477784,0.0111856177455,-0.0175773993144,0.0,0.0,0.0,0.0,0.0,0.0,0.0,0.0,0.0,-0.916385387738,9.4772911771,2.11988891263,0.0,0.0,0.0,0.0,0.0,0.0,0.0,0.0,0.0
1430087055578299046,152,1430087055575593630,,0.0,0.0,0.0,0.0,0.0,0.0,0.0,0.0,0.0,0.0,0.0,0.0,0.0,-0.0165121023862,0.0138488600659,-0.0213059385628,0.0,0.0,0.0,0.0,0.0,0.0,0.0,0.0,0.0,-0.88528092288,9.50839564196,1.98350779748,0.0,0.0,0.0,0.0,0.0,0.0,0.0,0.0,0.0
1430087095578477884,153,1430087095575613509,,0.0,0.0,0.0,0.0,0.0,0.0,0.0,0.0,0.0,0.0,0.0,0.0,0.0,-0.0191753447066,0.0127835631377,-0.0181100477784,0.0,0.0,0.0,0.0,0.0,0.0,0.0,0.0,0.0,-0.921170690023,9.50839564196,2.05289468062,0.0,0.0,0.0,0.0,0.0,0.0,0.0,0.0,0.0
1430087135579333472,154,1430087135575612181,,0.0,0.0,0.0,0.0,0.0,0.0,0.0,0.0,0.0,0.0,0.0,0.0,0.0,-0.0154468054581,0.0133162116018,-0.0181100477784,0.0,0.0,0.0,0.0,0.0,0.0,0.0,0.0,0.0,-0.897244178594,9.46293527024,2.03853877377,0.0,0.0,0.0,0.0,0.0,0.0,0.0,0.0,0.0
1430087175578319060,155,1430087175575622144,,0.0,0.0,0.0,0.0,0.0,0.0,0.0,0.0,0.0,0.0,0.0,0.0,0.0,-0.0207732900988,0.0154468054581,-0.0170447508503,0.0,0.0,0.0,0.0,0.0,0.0,0.0,0.0,0.0,-0.868532364879,9.42465285195,2.02896816919,0.0,0.0,0.0,0.0,0.0,0.0,0.0,0.0,0.0
1430087215578254940,156,1430087215575555982,,0.0,0.0,0.0,0.0,0.0,0.0,0.0,0.0,0.0,0.0,0.0,0.0,0.0,-0.0181100477784,0.0159794539221,-0.0181100477784,0.0,0.0,0.0,0.0,0.0,0.0,0.0,0.0,0.0,-0.933133945738,9.46532792138,2.08160649434,0.0,0.0,0.0,0.0,0.0,0.0,0.0,0.0,0.0
1430087255578556612,157,1430087255575612612,,0.0,0.0,0.0,0.0,0.0,0.0,0.0,0.0,0.0,0.0,0.0,0.0,0.0,-0.0175773993144,0.0117182662096,-0.0181100477784,0.0,0.0,0.0,0.0,0.0,0.0,0.0,0.0,0.0,-0.868532364879,9.41508224738,1.98111514634,0.0,0.0,0.0,0.0,0.0,0.0,0.0,0.0,0.0
1430087295578777075,158,1430087295575609116,,0.0,0.0,0.0,0.0,0.0,0.0,0.0,0.0,0.0,0.0,0.0,0.0,0.0,-0.0186426962425,0.0133162116018,-0.0202406416347,0.0,0.0,0.0,0.0,0.0,0.0,0.0,0.0,0.0,-0.890066225166,9.5107882931,2.07682119205,0.0,0.0,0.0,0.0,0.0,0.0,0.0,0.0,0.0
1430087335578282163,159,1430087335575601413,,0.0,0.0,0.0,0.0,0.0,0.0,0.0,0.0,0.0,0.0,0.0,0.0,0.0,-0.0191753447066,0.0138488600659,-0.0181100477784,0.0,0.0,0.0,0.0,0.0,0.0,0.0,0.0,0.0,-0.837427900021,9.47489852596,2.00982696005,0.0,0.0,0.0,0.0,0.0,0.0,0.0,0.0,0.0
1430087375582638876,160,1430087375575633626,,0.0,0.0,0.0,0.0,0.0,0.0,0.0,0.0,0.0,0.0,0.0,0.0,0.0,-0.0170447508503,0.0143815085299,-0.0175773993144,0.0,0.0,0.0,0.0,0.0,0.0,0.0,0.0,0.0,-0.949882503739,9.45336466567,2.08160649434,0.0,0.0,0.0,0.0,0.0,0.0,0.0,0.0,0.0
1430087415579470506,161,1430087415576923297,,0.0,0.0,0.0,0.0,0.0,0.0,0.0,0.0,0.0,0.0,0.0,0.0,0.0,-0.0197079931706,0.0122509146736,-0.0202406416347,0.0,0.0,0.0,0.0,0.0,0.0,0.0,0.0,0.0,-0.897244178594,9.54189275796,2.05050202948,0.0,0.0,0.0,0.0,0.0,0.0,0.0,0.0,0.0
1430087455578680594,162,1430087455575621552,,0.0,0.0,0.0,0.0,0.0,0.0,0.0,0.0,0.0,0.0,0.0,0.0,0.0,-0.0202406416347,0.0133162116018,-0.0191753447066,0.0,0.0,0.0,0.0,0.0,0.0,0.0,0.0,0.0,-0.866139713736,9.44857936338,2.04332407605,0.0,0.0,0.0,0.0,0.0,0.0,0.0,0.0,0.0
1430087495578524682,163,1430087495575606640,,0.0,0.0,0.0,0.0,0.0,0.0,0.0,0.0,0.0,0.0,0.0,0.0,0.0,-0.0165121023862,0.0122509146736,-0.0165121023862,0.0,0.0,0.0,0.0,0.0,0.0,0.0,0.0,0.0,-0.906814783166,9.46293527024,2.02418286691,0.0,0.0,0.0,0.0,0.0,0.0,0.0,0.0,0.0
1430087535578284312,164,1430087535575614353,,0.0,0.0,0.0,0.0,0.0,0.0,0.0,0.0,0.0,0.0,0.0,0.0,0.0,-0.0186426962425,0.0122509146736,-0.0154468054581,0.0,0.0,0.0,0.0,0.0,0.0,0.0,0.0,0.0,-0.904422132023,9.38158513138,1.99068575091,0.0,0.0,0.0,0.0,0.0,0.0,0.0,0.0,0.0
1430087575578335817,165,1430087575575596942,,0.0,0.0,0.0,0.0,0.0,0.0,0.0,0.0,0.0,0.0,0.0,0.0,0.0,-0.0197079931706,0.0138488600659,-0.0181100477784,0.0,0.0,0.0,0.0,0.0,0.0,0.0,0.0,0.0,-0.892458876308,9.53471480453,2.07203588977,0.0,0.0,0.0,0.0,0.0,0.0,0.0,0.0,0.0
1430087615578315613,166,1430087615575623488,,0.0,0.0,0.0,0.0,0.0,0.0,0.0,0.0,0.0,0.0,0.0,0.0,0.0,-0.0207732900988,0.0165121023862,-0.0207732900988,0.0,0.0,0.0,0.0,0.0,0.0,0.0,0.0,0.0,-0.945097201453,9.44857936338,2.18688314463,0.0,0.0,0.0,0.0,0.0,0.0,0.0,0.0,0.0
1430087655578332201,167,1430087655575647534,,0.0,0.0,0.0,0.0,0.0,0.0,0.0,0.0,0.0,0.0,0.0,0.0,0.0,-0.0186426962425,0.0154468054581,-0.0207732900988,0.0,0.0,0.0,0.0,0.0,0.0,0.0,0.0,0.0,-0.961845759453,9.41268959624,2.04093142491,0.0,0.0,0.0,0.0,0.0,0.0,0.0,0.0,0.0
1430087695578688289,168,1430087695575573831,,0.0,0.0,0.0,0.0,0.0,0.0,0.0,0.0,0.0,0.0,0.0,0.0,0.0,-0.0213059385628,0.0127835631377,-0.0213059385628,0.0,0.0,0.0,0.0,0.0,0.0,0.0,0.0,0.0,-0.90202948088,9.51557359539,2.09117709891,0.0,0.0,0.0,0.0,0.0,0.0,0.0,0.0,0.0
1430087735578395419,169,1430087735575634086,,0.0,0.0,0.0,0.0,0.0,0.0,0.0,0.0,0.0,0.0,0.0,0.0,0.0,-0.0175773993144,0.0117182662096,-0.0175773993144,0.0,0.0,0.0,0.0,0.0,0.0,0.0,0.0,0.0,-0.897244178594,9.46293527024,2.04332407605,0.0,0.0,0.0,0.0,0.0,0.0,0.0,0.0,0.0
1430087775578312049,170,1430087775575601799,,0.0,0.0,0.0,0.0,0.0,0.0,0.0,0.0,0.0,0.0,0.0,0.0,0.0,-0.0175773993144,0.0127835631377,-0.0175773993144,0.0,0.0,0.0,0.0,0.0,0.0,0.0,0.0,0.0,-0.873317667165,9.48207647938,2.03614612262,0.0,0.0,0.0,0.0,0.0,0.0,0.0,0.0,0.0
1430087815578318345,171,1430087815575606845,,0.0,0.0,0.0,0.0,0.0,0.0,0.0,0.0,0.0,0.0,0.0,0.0,0.0,-0.0154468054581,0.0122509146736,-0.0175773993144,0.0,0.0,0.0,0.0,0.0,0.0,0.0,0.0,0.0,-0.90202948088,9.50839564196,2.04093142491,0.0,0.0,0.0,0.0,0.0,0.0,0.0,0.0,0.0
1430087855578289225,172,1430087855575599642,,0.0,0.0,0.0,0.0,0.0,0.0,0.0,0.0,0.0,0.0,0.0,0.0,0.0,-0.0181100477784,0.0127835631377,-0.0170447508503,0.0,0.0,0.0,0.0,0.0,0.0,0.0,0.0,0.0,-0.892458876308,9.4270455031,2.00982696005,0.0,0.0,0.0,0.0,0.0,0.0,0.0,0.0,0.0
1430087895578295646,173,1430087895575602813,,0.0,0.0,0.0,0.0,0.0,0.0,0.0,0.0,0.0,0.0,0.0,0.0,0.0,-0.0186426962425,0.0165121023862,-0.0165121023862,0.0,0.0,0.0,0.0,0.0,0.0,0.0,0.0,0.0,-0.84460585345,9.45814996796,2.00982696005,0.0,0.0,0.0,0.0,0.0,0.0,0.0,0.0,0.0
1430087935578289776,174,1430087935575599193,,0.0,0.0,0.0,0.0,0.0,0.0,0.0,0.0,0.0,0.0,0.0,0.0,0.0,-0.0186426962425,0.0143815085299,-0.0186426962425,0.0,0.0,0.0,0.0,0.0,0.0,0.0,0.0,0.0,-0.906814783166,9.48207647938,2.03375347148,0.0,0.0,0.0,0.0,0.0,0.0,0.0,0.0,0.0
1430087975582051364,175,1430087975575972698,,0.0,0.0,0.0,0.0,0.0,0.0,0.0,0.0,0.0,0.0,0.0,0.0,0.0,-0.0186426962425,0.0122509146736,-0.0175773993144,0.0,0.0,0.0,0.0,0.0,0.0,0.0,0.0,0.0,-0.904422132023,9.46293527024,2.05528733177,0.0,0.0,0.0,0.0,0.0,0.0,0.0,0.0,0.0
1430088015578471494,176,1430088015575804577,,0.0,0.0,0.0,0.0,0.0,0.0,0.0,0.0,0.0,0.0,0.0,0.0,0.0,-0.0186426962425,0.0122509146736,-0.0170447508503,0.0,0.0,0.0,0.0,0.0,0.0,0.0,0.0,0.0,-0.904422132023,9.3767998291,1.98350779748,0.0,0.0,0.0,0.0,0.0,0.0,0.0,0.0,0.0
1430088055579209540,177,1430088055575622832,,0.0,0.0,0.0,0.0,0.0,0.0,0.0,0.0,0.0,0.0,0.0,0.0,0.0,-0.0175773993144,0.0106529692814,-0.0197079931706,0.0,0.0,0.0,0.0,0.0,0.0,0.0,0.0,0.0,-0.866139713736,9.43422345653,2.11510361034,0.0,0.0,0.0,0.0,0.0,0.0,0.0,0.0,0.0
1430088095578296753,178,1430088095575624462,,0.0,0.0,0.0,0.0,0.0,0.0,0.0,0.0,0.0,0.0,0.0,0.0,0.0,-0.0170447508503,0.0111856177455,-0.0170447508503,0.0,0.0,0.0,0.0,0.0,0.0,0.0,0.0,0.0,-0.837427900021,9.46772057253,2.12467421491,0.0,0.0,0.0,0.0,0.0,0.0,0.0,0.0,0.0
1430088135578290008,179,1430088135575635675,,0.0,0.0,0.0,0.0,0.0,0.0,0.0,0.0,0.0,0.0,0.0,0.0,0.0,-0.0175773993144,0.0138488600659,-0.0170447508503,0.0,0.0,0.0,0.0,0.0,0.0,0.0,0.0,0.0,-0.861354411451,9.47250587481,2.09356975005,0.0,0.0,0.0,0.0,0.0,0.0,0.0,0.0,0.0
1430088175578308930,180,1430088175575632930,,0.0,0.0,0.0,0.0,0.0,0.0,0.0,0.0,0.0,0.0,0.0,0.0,0.0,-0.0191753447066,0.0117182662096,-0.0175773993144,0.0,0.0,0.0,0.0,0.0,0.0,0.0,0.0,0.0,-0.913992736595,9.45814996796,2.00264900662,0.0,0.0,0.0,0.0,0.0,0.0,0.0,0.0,0.0
1430088215578361643,181,1430088215575630476,,0.0,0.0,0.0,0.0,0.0,0.0,0.0,0.0,0.0,0.0,0.0,0.0,0.0,-0.0186426962425,0.0122509146736,-0.0170447508503,0.0,0.0,0.0,0.0,0.0,0.0,0.0,0.0,0.0,-0.892458876308,9.40790429395,2.07203588977,0.0,0.0,0.0,0.0,0.0,0.0,0.0,0.0,0.0
1430088255578814939,182,1430088255575980356,,0.0,0.0,0.0,0.0,0.0,0.0,0.0,0.0,0.0,0.0,0.0,0.0,0.0,-0.0197079931706,0.0138488600659,-0.0181100477784,0.0,0.0,0.0,0.0,0.0,0.0,0.0,0.0,0.0,-0.851783806879,9.52992950224,2.00982696005,0.0,0.0,0.0,0.0,0.0,0.0,0.0,0.0,0.0
1430088295578565902,183,1430088295575619027,,0.0,0.0,0.0,0.0,0.0,0.0,0.0,0.0,0.0,0.0,0.0,0.0,0.0,-0.0143815085299,0.0165121023862,-0.0181100477784,0.0,0.0,0.0,0.0,0.0,0.0,0.0,0.0,0.0,-0.851783806879,9.45814996796,1.97393719291,0.0,0.0,0.0,0.0,0.0,0.0,0.0,0.0,0.0
1430088335578285324,184,1430088335575572990,,0.0,0.0,0.0,0.0,0.0,0.0,0.0,0.0,0.0,0.0,0.0,0.0,0.0,-0.0202406416347,0.0138488600659,-0.0170447508503,0.0,0.0,0.0,0.0,0.0,0.0,0.0,0.0,0.0,-0.837427900021,9.48686178167,2.12467421491,0.0,0.0,0.0,0.0,0.0,0.0,0.0,0.0,0.0
1430088375578332120,185,1430088375575614787,,0.0,0.0,0.0,0.0,0.0,0.0,0.0,0.0,0.0,0.0,0.0,0.0,0.0,-0.0213059385628,0.0117182662096,-0.0181100477784,0.0,0.0,0.0,0.0,0.0,0.0,0.0,0.0,0.0,-0.928348643452,9.46293527024,2.13424481948,0.0,0.0,0.0,0.0,0.0,0.0,0.0,0.0,0.0
1430088415578406292,186,1430088415575710417,,0.0,0.0,0.0,0.0,0.0,0.0,0.0,0.0,0.0,0.0,0.0,0.0,0.0,-0.0186426962425,0.0101203208174,-0.0181100477784,0.0,0.0,0.0,0.0,0.0,0.0,0.0,0.0,0.0,-0.866139713736,9.47250587481,1.97632984405,0.0,0.0,0.0,0.0,0.0,0.0,0.0,0.0,0.0
1430088455578353130,187,1430088455575607421,,0.0,0.0,0.0,0.0,0.0,0.0,0.0,0.0,0.0,0.0,0.0,0.0,0.0,-0.0213059385628,0.0106529692814,-0.0191753447066,0.0,0.0,0.0,0.0,0.0,0.0,0.0,0.0,0.0,-0.846998504593,9.4102969451,2.10792565691,0.0,0.0,0.0,0.0,0.0,0.0,0.0,0.0,0.0
1430088495578293093,188,1430088495575603093,,0.0,0.0,0.0,0.0,0.0,0.0,0.0,0.0,0.0,0.0,0.0,0.0,0.0,-0.0181100477784,0.0111856177455,-0.0207732900988,0.0,0.0,0.0,0.0,0.0,0.0,0.0,0.0,0.0,-0.880495620594,9.47011322367,2.03136082034,0.0,0.0,0.0,0.0,0.0,0.0,0.0,0.0,0.0
1430088535578339723,189,1430088535575610306,,0.0,0.0,0.0,0.0,0.0,0.0,0.0,0.0,0.0,0.0,0.0,0.0,0.0,-0.0191753447066,0.0133162116018,-0.0186426962425,0.0,0.0,0.0,0.0,0.0,0.0,0.0,0.0,0.0,-0.940311899167,9.48686178167,2.00743430891,0.0,0.0,0.0,0.0,0.0,0.0,0.0,0.0,0.0
1430088575578330561,190,1430088575575641644,,0.0,0.0,0.0,0.0,0.0,0.0,0.0,0.0,0.0,0.0,0.0,0.0,0.0,-0.0191753447066,0.014914156994,-0.0186426962425,0.0,0.0,0.0,0.0,0.0,0.0,0.0,0.0,0.0,-0.928348643452,9.48925443281,2.05528733177,0.0,0.0,0.0,0.0,0.0,0.0,0.0,0.0,0.0
1430088615578452149,191,1430088615575584649,,0.0,0.0,0.0,0.0,0.0,0.0,0.0,0.0,0.0,0.0,0.0,0.0,0.0,-0.0181100477784,0.0138488600659,-0.0181100477784,0.0,0.0,0.0,0.0,0.0,0.0,0.0,0.0,0.0,-0.870925016022,9.4940397351,2.00264900662,0.0,0.0,0.0,0.0,0.0,0.0,0.0,0.0,0.0
1430088655578261404,192,1430088655575598904,,0.0,0.0,0.0,0.0,0.0,0.0,0.0,0.0,0.0,0.0,0.0,0.0,0.0,-0.014914156994,0.0127835631377,-0.0154468054581,0.0,0.0,0.0,0.0,0.0,0.0,0.0,0.0,0.0,-0.90202948088,9.47968382824,2.0457167272,0.0,0.0,0.0,0.0,0.0,0.0,0.0,0.0,0.0
1430088695578312825,193,1430088695575621700,,0.0,0.0,0.0,0.0,0.0,0.0,0.0,0.0,0.0,0.0,0.0,0.0,0.0,-0.0197079931706,0.014914156994,-0.0207732900988,0.0,0.0,0.0,0.0,0.0,0.0,0.0,0.0,0.0,-0.815894039735,9.45575731681,2.00982696005,0.0,0.0,0.0,0.0,0.0,0.0,0.0,0.0,0.0
1430088735578294871,194,1430088735575582663,,0.0,0.0,0.0,0.0,0.0,0.0,0.0,0.0,0.0,0.0,0.0,0.0,0.0,-0.0202406416347,0.0138488600659,-0.0191753447066,0.0,0.0,0.0,0.0,0.0,0.0,0.0,0.0,0.0,-0.863747062593,9.43900875881,2.04332407605,0.0,0.0,0.0,0.0,0.0,0.0,0.0,0.0,0.0
1430088775578337585,195,1430088775575594543,,0.0,0.0,0.0,0.0,0.0,0.0,0.0,0.0,0.0,0.0,0.0,0.0,0.0,-0.0197079931706,0.0127835631377,-0.0197079931706,0.0,0.0,0.0,0.0,0.0,0.0,0.0,0.0,0.0,-0.858961760308,9.45097201453,1.95718863491,0.0,0.0,0.0,0.0,0.0,0.0,0.0,0.0,0.0
1430088815578471048,196,1430088815575575173,,0.0,0.0,0.0,0.0,0.0,0.0,0.0,0.0,0.0,0.0,0.0,0.0,0.0,-0.0186426962425,0.0117182662096,-0.0175773993144,0.0,0.0,0.0,0.0,0.0,0.0,0.0,0.0,0.0,-0.854176458022,9.50121768853,1.98111514634,0.0,0.0,0.0,0.0,0.0,0.0,0.0,0.0,0.0
1430088855578509636,197,1430088855575585094,,0.0,0.0,0.0,0.0,0.0,0.0,0.0,0.0,0.0,0.0,0.0,0.0,0.0,-0.0181100477784,0.014914156994,-0.0197079931706,0.0,0.0,0.0,0.0,0.0,0.0,0.0,0.0,0.0,-0.875710318308,9.49882503739,1.98590044862,0.0,0.0,0.0,0.0,0.0,0.0,0.0,0.0,0.0
1430088895578366474,198,1430088895575615641,,0.0,0.0,0.0,0.0,0.0,0.0,0.0,0.0,0.0,0.0,0.0,0.0,0.0,-0.0165121023862,0.0122509146736,-0.0175773993144,0.0,0.0,0.0,0.0,0.0,0.0,0.0,0.0,0.0,-0.88528092288,9.41986754967,1.97872249519,0.0,0.0,0.0,0.0,0.0,0.0,0.0,0.0,0.0
1430088935578322979,199,1430088935575582270,,0.0,0.0,0.0,0.0,0.0,0.0,0.0,0.0,0.0,0.0,0.0,0.0,0.0,-0.0170447508503,0.0122509146736,-0.0159794539221,0.0,0.0,0.0,0.0,0.0,0.0,0.0,0.0,0.0,-0.892458876308,9.46532792138,2.06485793634,0.0,0.0,0.0,0.0,0.0,0.0,0.0,0.0,0.0
1430088975578713692,200,1430088975575564775,,0.0,0.0,0.0,0.0,0.0,0.0,0.0,0.0,0.0,0.0,0.0,0.0,0.0,-0.0170447508503,0.0101203208174,-0.0207732900988,0.0,0.0,0.0,0.0,0.0,0.0,0.0,0.0,0.0,-0.837427900021,9.48925443281,1.96675923948,0.0,0.0,0.0,0.0,0.0,0.0,0.0,0.0,0.0
1430089015578448321,201,1430089015575619696,,0.0,0.0,0.0,0.0,0.0,0.0,0.0,0.0,0.0,0.0,0.0,0.0,0.0,-0.0175773993144,0.014914156994,-0.0165121023862,0.0,0.0,0.0,0.0,0.0,0.0,0.0,0.0,0.0,-0.921170690023,9.47489852596,2.00025635548,0.0,0.0,0.0,0.0,0.0,0.0,0.0,0.0,0.0
1430089055578324576,202,1430089055575627285,,0.0,0.0,0.0,0.0,0.0,0.0,0.0,0.0,0.0,0.0,0.0,0.0,0.0,-0.0175773993144,0.0127835631377,-0.0181100477784,0.0,0.0,0.0,0.0,0.0,0.0,0.0,0.0,0.0,-0.933133945738,9.43183080538,1.95240333262,0.0,0.0,0.0,0.0,0.0,0.0,0.0,0.0,0.0
1430089095578361123,203,1430089095575643164,,0.0,0.0,0.0,0.0,0.0,0.0,0.0,0.0,0.0,0.0,0.0,0.0,0.0,-0.0202406416347,0.0133162116018,-0.0175773993144,0.0,0.0,0.0,0.0,0.0,0.0,0.0,0.0,0.0,-0.899636829737,9.43900875881,2.00264900662,0.0,0.0,0.0,0.0,0.0,0.0,0.0,0.0,0.0
1430089135578308711,204,1430089135575624169,,0.0,0.0,0.0,0.0,0.0,0.0,0.0,0.0,0.0,0.0,0.0,0.0,0.0,-0.0186426962425,0.0138488600659,-0.0186426962425,0.0,0.0,0.0,0.0,0.0,0.0,0.0,0.0,0.0,-0.856569109165,9.50121768853,1.97154454176,0.0,0.0,0.0,0.0,0.0,0.0,0.0,0.0,0.0
1430089175578438966,205,1430089175575698799,,0.0,0.0,0.0,0.0,0.0,0.0,0.0,0.0,0.0,0.0,0.0,0.0,0.0,-0.0175773993144,0.0127835631377,-0.0170447508503,0.0,0.0,0.0,0.0,0.0,0.0,0.0,0.0,0.0,-0.866139713736,9.44618671224,2.07203588977,0.0,0.0,0.0,0.0,0.0,0.0,0.0,0.0,0.0
1430089215578307887,206,1430089215575630679,,0.0,0.0,0.0,0.0,0.0,0.0,0.0,0.0,0.0,0.0,0.0,0.0,0.0,-0.0197079931706,0.0133162116018,-0.0186426962425,0.0,0.0,0.0,0.0,0.0,0.0,0.0,0.0,0.0,-0.921170690023,9.44857936338,1.98350779748,0.0,0.0,0.0,0.0,0.0,0.0,0.0,0.0,0.0
1430089255578360100,207,1430089255575622767,,0.0,0.0,0.0,0.0,0.0,0.0,0.0,0.0,0.0,0.0,0.0,0.0,0.0,-0.0175773993144,0.0127835631377,-0.0175773993144,0.0,0.0,0.0,0.0,0.0,0.0,0.0,0.0,0.0,-0.897244178594,9.46772057253,2.08878444777,0.0,0.0,0.0,0.0,0.0,0.0,0.0,0.0,0.0
1430089295578302355,208,1430089295575622230,,0.0,0.0,0.0,0.0,0.0,0.0,0.0,0.0,0.0,0.0,0.0,0.0,0.0,-0.014914156994,0.0122509146736,-0.0175773993144,0.0,0.0,0.0,0.0,0.0,0.0,0.0,0.0,0.0,-0.882888271737,9.45097201453,1.96197393719,0.0,0.0,0.0,0.0,0.0,0.0,0.0,0.0,0.0
1430089335578414651,209,1430089335575732818,,0.0,0.0,0.0,0.0,0.0,0.0,0.0,0.0,0.0,0.0,0.0,0.0,0.0,-0.0165121023862,0.0133162116018,-0.0181100477784,0.0,0.0,0.0,0.0,0.0,0.0,0.0,0.0,0.0,-0.88528092288,9.48207647938,2.0959624012,0.0,0.0,0.0,0.0,0.0,0.0,0.0,0.0,0.0
1430089375578576364,210,1430089375575716698,,0.0,0.0,0.0,0.0,0.0,0.0,0.0,0.0,0.0,0.0,0.0,0.0,0.0,-0.0197079931706,0.0122509146736,-0.0213059385628,0.0,0.0,0.0,0.0,0.0,0.0,0.0,0.0,0.0,-0.894851527451,9.41986754967,2.05050202948,0.0,0.0,0.0,0.0,0.0,0.0,0.0,0.0,0.0
1430089415578569953,211,1430089415576001786,,0.0,0.0,0.0,0.0,0.0,0.0,0.0,0.0,0.0,0.0,0.0,0.0,0.0,-0.0202406416347,0.014914156994,-0.014914156994,0.0,0.0,0.0,0.0,0.0,0.0,0.0,0.0,0.0,-0.861354411451,9.50361033967,1.98111514634,0.0,0.0,0.0,0.0,0.0,0.0,0.0,0.0,0.0
1430089455578500207,212,1430089455575950499,,0.0,0.0,0.0,0.0,0.0,0.0,0.0,0.0,0.0,0.0,0.0,0.0,0.0,-0.0191753447066,0.0117182662096,-0.0191753447066,0.0,0.0,0.0,0.0,0.0,0.0,0.0,0.0,0.0,-0.887673574023,9.43183080538,1.98111514634,0.0,0.0,0.0,0.0,0.0,0.0,0.0,0.0,0.0
1430089495578311629,213,1430089495575604712,,0.0,0.0,0.0,0.0,0.0,0.0,0.0,0.0,0.0,0.0,0.0,0.0,0.0,-0.0186426962425,0.0138488600659,-0.0170447508503,0.0,0.0,0.0,0.0,0.0,0.0,0.0,0.0,0.0,-0.868532364879,9.50839564196,2.09117709891,0.0,0.0,0.0,0.0,0.0,0.0,0.0,0.0,0.0
1430089535578381175,214,1430089535575654133,,0.0,0.0,0.0,0.0,0.0,0.0,0.0,0.0,0.0,0.0,0.0,0.0,0.0,-0.0191753447066,0.0127835631377,-0.0170447508503,0.0,0.0,0.0,0.0,0.0,0.0,0.0,0.0,0.0,-0.887673574023,9.41747489853,2.05767998291,0.0,0.0,0.0,0.0,0.0,0.0,0.0,0.0,0.0
1430089575578276930,215,1430089575575605347,,0.0,0.0,0.0,0.0,0.0,0.0,0.0,0.0,0.0,0.0,0.0,0.0,0.0,-0.0175773993144,0.0143815085299,-0.0191753447066,0.0,0.0,0.0,0.0,0.0,0.0,0.0,0.0,0.0,-0.854176458022,9.41747489853,2.05050202948,0.0,0.0,0.0,0.0,0.0,0.0,0.0,0.0,0.0
1430089615578294226,216,1430089615575619685,,0.0,0.0,0.0,0.0,0.0,0.0,0.0,0.0,0.0,0.0,0.0,0.0,0.0,-0.0186426962425,0.0133162116018,-0.0186426962425,0.0,0.0,0.0,0.0,0.0,0.0,0.0,0.0,0.0,-0.906814783166,9.42465285195,2.02896816919,0.0,0.0,0.0,0.0,0.0,0.0,0.0,0.0,0.0
1430089655578381564,217,1430089655575617356,,0.0,0.0,0.0,0.0,0.0,0.0,0.0,0.0,0.0,0.0,0.0,0.0,0.0,-0.0175773993144,0.0117182662096,-0.0170447508503,0.0,0.0,0.0,0.0,0.0,0.0,0.0,0.0,0.0,-0.904422132023,9.48446913053,2.01939756462,0.0,0.0,0.0,0.0,0.0,0.0,0.0,0.0,0.0
1430089695578494569,218,1430089695575587444,,0.0,0.0,0.0,0.0,0.0,0.0,0.0,0.0,0.0,0.0,0.0,0.0,0.0,-0.0186426962425,0.014914156994,-0.0191753447066,0.0,0.0,0.0,0.0,0.0,0.0,0.0,0.0,0.0,-0.842213202307,9.42943815424,2.04332407605,0.0,0.0,0.0,0.0,0.0,0.0,0.0,0.0,0.0
1430089735578393366,219,1430089735575600199,,0.0,0.0,0.0,0.0,0.0,0.0,0.0,0.0,0.0,0.0,0.0,0.0,0.0,-0.0181100477784,0.0122509146736,-0.0165121023862,0.0,0.0,0.0,0.0,0.0,0.0,0.0,0.0,0.0,-0.957060457167,9.48446913053,2.01939756462,0.0,0.0,0.0,0.0,0.0,0.0,0.0,0.0,0.0
1430089775578446204,220,1430089775575748370,,0.0,0.0,0.0,0.0,0.0,0.0,0.0,0.0,0.0,0.0,0.0,0.0,0.0,-0.0186426962425,0.0133162116018,-0.0181100477784,0.0,0.0,0.0,0.0,0.0,0.0,0.0,0.0,0.0,-0.870925016022,9.43661610767,2.06485793634,0.0,0.0,0.0,0.0,0.0,0.0,0.0,0.0,0.0
1430089815578292292,221,1430089815575616209,,0.0,0.0,0.0,0.0,0.0,0.0,0.0,0.0,0.0,0.0,0.0,0.0,0.0,-0.0181100477784,0.0117182662096,-0.0175773993144,0.0,0.0,0.0,0.0,0.0,0.0,0.0,0.0,0.0,-0.918778038881,9.44857936338,1.99547105319,0.0,0.0,0.0,0.0,0.0,0.0,0.0,0.0,0.0
1430089855578318713,222,1430089855575637797,,0.0,0.0,0.0,0.0,0.0,0.0,0.0,0.0,0.0,0.0,0.0,0.0,0.0,-0.0159794539221,0.00905502388921,-0.0186426962425,0.0,0.0,0.0,0.0,0.0,0.0,0.0,0.0,0.0,-0.866139713736,9.39833368938,2.0959624012,0.0,0.0,0.0,0.0,0.0,0.0,0.0,0.0,0.0
1430089895578280843,223,1430089895575549801,,0.0,0.0,0.0,0.0,0.0,0.0,0.0,0.0,0.0,0.0,0.0,0.0,0.0,-0.0175773993144,0.0117182662096,-0.0181100477784,0.0,0.0,0.0,0.0,0.0,0.0,0.0,0.0,0.0,-0.863747062593,9.45336466567,2.02657551805,0.0,0.0,0.0,0.0,0.0,0.0,0.0,0.0,0.0
1430089935578400931,224,1430089935575626056,,0.0,0.0,0.0,0.0,0.0,0.0,0.0,0.0,0.0,0.0,0.0,0.0,0.0,-0.0159794539221,0.014914156994,-0.0191753447066,0.0,0.0,0.0,0.0,0.0,0.0,0.0,0.0,0.0,-0.921170690023,9.44140140996,2.06964323862,0.0,0.0,0.0,0.0,0.0,0.0,0.0,0.0,0.0
1430089975578376769,225,1430089975575628894,,0.0,0.0,0.0,0.0,0.0,0.0,0.0,0.0,0.0,0.0,0.0,0.0,0.0,-0.0170447508503,0.0138488600659,-0.0191753447066,0.0,0.0,0.0,0.0,0.0,0.0,0.0,0.0,0.0,-0.84460585345,9.41986754967,1.98111514634,0.0,0.0,0.0,0.0,0.0,0.0,0.0,0.0,0.0
1430090015578315899,226,1430090015575636857,,0.0,0.0,0.0,0.0,0.0,0.0,0.0,0.0,0.0,0.0,0.0,0.0,0.0,-0.0165121023862,0.0133162116018,-0.0197079931706,0.0,0.0,0.0,0.0,0.0,0.0,0.0,0.0,0.0,-0.849391155736,9.50121768853,2.07203588977,0.0,0.0,0.0,0.0,0.0,0.0,0.0,0.0,0.0
1430090055578279362,227,1430090055575596737,,0.0,0.0,0.0,0.0,0.0,0.0,0.0,0.0,0.0,0.0,0.0,0.0,0.0,-0.0197079931706,0.0133162116018,-0.0191753447066,0.0,0.0,0.0,0.0,0.0,0.0,0.0,0.0,0.0,-0.863747062593,9.47250587481,2.02657551805,0.0,0.0,0.0,0.0,0.0,0.0,0.0,0.0,0.0
1430090095578297034,228,1430090095575602034,,0.0,0.0,0.0,0.0,0.0,0.0,0.0,0.0,0.0,0.0,0.0,0.0,0.0,-0.0159794539221,0.0106529692814,-0.0175773993144,0.0,0.0,0.0,0.0,0.0,0.0,0.0,0.0,0.0,-0.921170690023,9.5275368511,2.02896816919,0.0,0.0,0.0,0.0,0.0,0.0,0.0,0.0,0.0
1430090135578306872,229,1430090135575607622,,0.0,0.0,0.0,0.0,0.0,0.0,0.0,0.0,0.0,0.0,0.0,0.0,0.0,-0.0181100477784,0.0133162116018,-0.0181100477784,0.0,0.0,0.0,0.0,0.0,0.0,0.0,0.0,0.0,-0.935526596881,9.45336466567,2.04332407605,0.0,0.0,0.0,0.0,0.0,0.0,0.0,0.0,0.0
1430090175578225710,230,1430090175575553793,,0.0,0.0,0.0,0.0,0.0,0.0,0.0,0.0,0.0,0.0,0.0,0.0,0.0,-0.0170447508503,0.0133162116018,-0.0186426962425,0.0,0.0,0.0,0.0,0.0,0.0,0.0,0.0,0.0,-0.870925016022,9.48446913053,2.05528733177,0.0,0.0,0.0,0.0,0.0,0.0,0.0,0.0,0.0
1430090215578394673,231,1430090215575614173,,0.0,0.0,0.0,0.0,0.0,0.0,0.0,0.0,0.0,0.0,0.0,0.0,0.0,-0.0202406416347,0.0138488600659,-0.0175773993144,0.0,0.0,0.0,0.0,0.0,0.0,0.0,0.0,0.0,-0.899636829737,9.45575731681,1.90694296091,0.0,0.0,0.0,0.0,0.0,0.0,0.0,0.0,0.0
1430090255578324094,232,1430090255575600094,,0.0,0.0,0.0,0.0,0.0,0.0,0.0,0.0,0.0,0.0,0.0,0.0,0.0,-0.0181100477784,0.0122509146736,-0.0186426962425,0.0,0.0,0.0,0.0,0.0,0.0,0.0,0.0,0.0,-0.863747062593,9.42226020081,2.01461226234,0.0,0.0,0.0,0.0,0.0,0.0,0.0,0.0,0.0
1430090295578538599,233,1430090295575621307,,0.0,0.0,0.0,0.0,0.0,0.0,0.0,0.0,0.0,0.0,0.0,0.0,0.0,-0.0202406416347,0.0111856177455,-0.0197079931706,0.0,0.0,0.0,0.0,0.0,0.0,0.0,0.0,0.0,-0.861354411451,9.50121768853,2.09356975005,0.0,0.0,0.0,0.0,0.0,0.0,0.0,0.0,0.0
1430090335578300604,234,1430090335575605562,,0.0,0.0,0.0,0.0,0.0,0.0,0.0,0.0,0.0,0.0,0.0,0.0,0.0,-0.0175773993144,0.0117182662096,-0.0170447508503,0.0,0.0,0.0,0.0,0.0,0.0,0.0,0.0,0.0,-0.897244178594,9.3767998291,2.08639179662,0.0,0.0,0.0,0.0,0.0,0.0,0.0,0.0,0.0
1430090375578324275,235,1430090375575620650,,0.0,0.0,0.0,0.0,0.0,0.0,0.0,0.0,0.0,0.0,0.0,0.0,0.0,-0.0165121023862,0.0143815085299,-0.0181100477784,0.0,0.0,0.0,0.0,0.0,0.0,0.0,0.0,0.0,-0.818286690878,9.47489852596,2.02896816919,0.0,0.0,0.0,0.0,0.0,0.0,0.0,0.0,0.0
1430090415578304822,236,1430090415575601738,,0.0,0.0,0.0,0.0,0.0,0.0,0.0,0.0,0.0,0.0,0.0,0.0,0.0,-0.0181100477784,0.0133162116018,-0.0170447508503,0.0,0.0,0.0,0.0,0.0,0.0,0.0,0.0,0.0,-0.858961760308,9.4270455031,2.03136082034,0.0,0.0,0.0,0.0,0.0,0.0,0.0,0.0,0.0
1430090455581650910,237,1430090455576919326,,0.0,0.0,0.0,0.0,0.0,0.0,0.0,0.0,0.0,0.0,0.0,0.0,0.0,-0.0218385870269,0.014914156994,-0.0202406416347,0.0,0.0,0.0,0.0,0.0,0.0,0.0,0.0,0.0,-0.921170690023,9.43661610767,2.07203588977,0.0,0.0,0.0,0.0,0.0,0.0,0.0,0.0,0.0
1430090495578421165,238,1430090495575733415,,0.0,0.0,0.0,0.0,0.0,0.0,0.0,0.0,0.0,0.0,0.0,0.0,0.0,-0.0197079931706,0.0127835631377,-0.0202406416347,0.0,0.0,0.0,0.0,0.0,0.0,0.0,0.0,0.0,-0.84460585345,9.51796624653,2.08878444777,0.0,0.0,0.0,0.0,0.0,0.0,0.0,0.0,0.0
1430090535578268211,239,1430090535575609003,,0.0,0.0,0.0,0.0,0.0,0.0,0.0,0.0,0.0,0.0,0.0,0.0,0.0,-0.0175773993144,0.0122509146736,-0.0154468054581,0.0,0.0,0.0,0.0,0.0,0.0,0.0,0.0,0.0,-0.897244178594,9.44857936338,2.00504165777,0.0,0.0,0.0,0.0,0.0,0.0,0.0,0.0,0.0
1430090575578303549,240,1430090575575606216,,0.0,0.0,0.0,0.0,0.0,0.0,0.0,0.0,0.0,0.0,0.0,0.0,0.0,-0.0143815085299,0.0138488600659,-0.0191753447066,0.0,0.0,0.0,0.0,0.0,0.0,0.0,0.0,0.0,-0.818286690878,9.53471480453,1.94761803034,0.0,0.0,0.0,0.0,0.0,0.0,0.0,0.0,0.0
1430090615578344721,241,1430090615575614804,,0.0,0.0,0.0,0.0,0.0,0.0,0.0,0.0,0.0,0.0,0.0,0.0,0.0,-0.0175773993144,0.0117182662096,-0.0181100477784,0.0,0.0,0.0,0.0,0.0,0.0,0.0,0.0,0.0,-0.873317667165,9.50361033967,2.05289468062,0.0,0.0,0.0,0.0,0.0,0.0,0.0,0.0,0.0
1430090655578314975,242,1430090655575623350,,0.0,0.0,0.0,0.0,0.0,0.0,0.0,0.0,0.0,0.0,0.0,0.0,0.0,-0.0175773993144,0.0111856177455,-0.0181100477784,0.0,0.0,0.0,0.0,0.0,0.0,0.0,0.0,0.0,-0.911600085452,9.45814996796,2.08878444777,0.0,0.0,0.0,0.0,0.0,0.0,0.0,0.0,0.0
1430090695578348105,243,1430090695575626772,,0.0,0.0,0.0,0.0,0.0,0.0,0.0,0.0,0.0,0.0,0.0,0.0,0.0,-0.0191753447066,0.0159794539221,-0.0186426962425,0.0,0.0,0.0,0.0,0.0,0.0,0.0,0.0,0.0,-0.866139713736,9.47250587481,2.00025635548,0.0,0.0,0.0,0.0,0.0,0.0,0.0,0.0,0.0
1430090735578281610,244,1430090735575575443,,0.0,0.0,0.0,0.0,0.0,0.0,0.0,0.0,0.0,0.0,0.0,0.0,0.0,-0.0186426962425,0.0117182662096,-0.0181100477784,0.0,0.0,0.0,0.0,0.0,0.0,0.0,0.0,0.0,-0.906814783166,9.45097201453,1.99547105319,0.0,0.0,0.0,0.0,0.0,0.0,0.0,0.0,0.0
1430090775578401781,245,1430090775575636406,,0.0,0.0,0.0,0.0,0.0,0.0,0.0,0.0,0.0,0.0,0.0,0.0,0.0,-0.0165121023862,0.0117182662096,-0.0159794539221,0.0,0.0,0.0,0.0,0.0,0.0,0.0,0.0,0.0,-0.868532364879,9.49882503739,2.01221961119,0.0,0.0,0.0,0.0,0.0,0.0,0.0,0.0,0.0
1430090815578294661,246,1430090815575580453,,0.0,0.0,0.0,0.0,0.0,0.0,0.0,0.0,0.0,0.0,0.0,0.0,0.0,-0.0154468054581,0.0106529692814,-0.0170447508503,0.0,0.0,0.0,0.0,0.0,0.0,0.0,0.0,0.0,-0.890066225166,9.45336466567,2.10314035463,0.0,0.0,0.0,0.0,0.0,0.0,0.0,0.0,0.0
1430090855578340916,247,1430090855575618583,,0.0,0.0,0.0,0.0,0.0,0.0,0.0,0.0,0.0,0.0,0.0,0.0,0.0,-0.0186426962425,0.0117182662096,-0.0186426962425,0.0,0.0,0.0,0.0,0.0,0.0,0.0,0.0,0.0,-0.861354411451,9.43183080538,2.05289468062,0.0,0.0,0.0,0.0,0.0,0.0,0.0,0.0,0.0
1430090895578269796,248,1430090895575617462,,0.0,0.0,0.0,0.0,0.0,0.0,0.0,0.0,0.0,0.0,0.0,0.0,0.0,-0.0202406416347,0.0127835631377,-0.0191753447066,0.0,0.0,0.0,0.0,0.0,0.0,0.0,0.0,0.0,-0.870925016022,9.46532792138,2.03614612262,0.0,0.0,0.0,0.0,0.0,0.0,0.0,0.0,0.0
1430090935578329842,249,1430090935575592884,,0.0,0.0,0.0,0.0,0.0,0.0,0.0,0.0,0.0,0.0,0.0,0.0,0.0,-0.0218385870269,0.0138488600659,-0.0191753447066,0.0,0.0,0.0,0.0,0.0,0.0,0.0,0.0,0.0,-0.921170690023,9.45814996796,2.0792138432,0.0,0.0,0.0,0.0,0.0,0.0,0.0,0.0,0.0
1430090975578708222,250,1430090975575609597,,0.0,0.0,0.0,0.0,0.0,0.0,0.0,0.0,0.0,0.0,0.0,0.0,0.0,-0.0191753447066,0.0143815085299,-0.0181100477784,0.0,0.0,0.0,0.0,0.0,0.0,0.0,0.0,0.0,-0.892458876308,9.50600299081,1.98590044862,0.0,0.0,0.0,0.0,0.0,0.0,0.0,0.0,0.0
1430091015578346768,251,1430091015575603102,,0.0,0.0,0.0,0.0,0.0,0.0,0.0,0.0,0.0,0.0,0.0,0.0,0.0,-0.0165121023862,0.0111856177455,-0.0159794539221,0.0,0.0,0.0,0.0,0.0,0.0,0.0,0.0,0.0,-0.906814783166,9.48446913053,1.94283272805,0.0,0.0,0.0,0.0,0.0,0.0,0.0,0.0,0.0
1430091055578630731,252,1430091055575612273,,0.0,0.0,0.0,0.0,0.0,0.0,0.0,0.0,0.0,0.0,0.0,0.0,0.0,-0.0207732900988,0.014914156994,-0.0159794539221,0.0,0.0,0.0,0.0,0.0,0.0,0.0,0.0,0.0,-0.937919248024,9.48207647938,2.02418286691,0.0,0.0,0.0,0.0,0.0,0.0,0.0,0.0,0.0
1430091095578271653,253,1430091095575572903,,0.0,0.0,0.0,0.0,0.0,0.0,0.0,0.0,0.0,0.0,0.0,0.0,0.0,-0.0170447508503,0.0133162116018,-0.0154468054581,0.0,0.0,0.0,0.0,0.0,0.0,0.0,0.0,0.0,-0.925955992309,9.4270455031,2.1127109592,0.0,0.0,0.0,0.0,0.0,0.0,0.0,0.0,0.0
1430091135578293283,254,1430091135575579074,,0.0,0.0,0.0,0.0,0.0,0.0,0.0,0.0,0.0,0.0,0.0,0.0,0.0,-0.0170447508503,0.014914156994,-0.0202406416347,0.0,0.0,0.0,0.0,0.0,0.0,0.0,0.0,0.0,-0.890066225166,9.4437940611,2.11031830805,0.0,0.0,0.0,0.0,0.0,0.0,0.0,0.0,0.0
1430091175578495287,255,1430091175575599996,,0.0,0.0,0.0,0.0,0.0,0.0,0.0,0.0,0.0,0.0,0.0,0.0,0.0,-0.0191753447066,0.0106529692814,-0.0175773993144,0.0,0.0,0.0,0.0,0.0,0.0,0.0,0.0,0.0,-0.892458876308,9.47011322367,1.98590044862,0.0,0.0,0.0,0.0,0.0,0.0,0.0,0.0,0.0
1430091215578405750,256,1430091215575603209,,0.0,0.0,0.0,0.0,0.0,0.0,0.0,0.0,0.0,0.0,0.0,0.0,0.0,-0.0202406416347,0.0117182662096,-0.0181100477784,0.0,0.0,0.0,0.0,0.0,0.0,0.0,0.0,0.0,-0.923563341166,9.46772057253,2.09835505234,0.0,0.0,0.0,0.0,0.0,0.0,0.0,0.0,0.0
1430091255578285339,257,1430091255575618172,,0.0,0.0,0.0,0.0,0.0,0.0,0.0,0.0,0.0,0.0,0.0,0.0,0.0,-0.0186426962425,0.0133162116018,-0.0175773993144,0.0,0.0,0.0,0.0,0.0,0.0,0.0,0.0,0.0,-0.849391155736,9.40551164281,2.12228156377,0.0,0.0,0.0,0.0,0.0,0.0,0.0,0.0,0.0
1430091295578296593,258,1430091295575593927,,0.0,0.0,0.0,0.0,0.0,0.0,0.0,0.0,0.0,0.0,0.0,0.0,0.0,-0.0170447508503,0.0138488600659,-0.0191753447066,0.0,0.0,0.0,0.0,0.0,0.0,0.0,0.0,0.0,-0.961845759453,9.4940397351,2.03136082034,0.0,0.0,0.0,0.0,0.0,0.0,0.0,0.0,0.0
1430091335578504723,259,1430091335575609431,,0.0,0.0,0.0,0.0,0.0,0.0,0.0,0.0,0.0,0.0,0.0,0.0,0.0,-0.022371235491,0.0111856177455,-0.0207732900988,0.0,0.0,0.0,0.0,0.0,0.0,0.0,0.0,0.0,-0.892458876308,9.44618671224,2.05767998291,0.0,0.0,0.0,0.0,0.0,0.0,0.0,0.0,0.0
1430091375578254186,260,1430091375575578478,,0.0,0.0,0.0,0.0,0.0,0.0,0.0,0.0,0.0,0.0,0.0,0.0,0.0,-0.0191753447066,0.0122509146736,-0.0170447508503,0.0,0.0,0.0,0.0,0.0,0.0,0.0,0.0,0.0,-0.935526596881,9.49643238624,2.06725058748,0.0,0.0,0.0,0.0,0.0,0.0,0.0,0.0,0.0
1430091415578414358,261,1430091415575617816,,0.0,0.0,0.0,0.0,0.0,0.0,0.0,0.0,0.0,0.0,0.0,0.0,0.0,-0.0165121023862,0.0133162116018,-0.0191753447066,0.0,0.0,0.0,0.0,0.0,0.0,0.0,0.0,0.0,-0.887673574023,9.45336466567,2.05289468062,0.0,0.0,0.0,0.0,0.0,0.0,0.0,0.0,0.0
1430091455578414446,262,1430091455575605654,,0.0,0.0,0.0,0.0,0.0,0.0,0.0,0.0,0.0,0.0,0.0,0.0,0.0,-0.0181100477784,0.0127835631377,-0.0186426962425,0.0,0.0,0.0,0.0,0.0,0.0,0.0,0.0,0.0,-0.906814783166,9.38397778253,1.99786370434,0.0,0.0,0.0,0.0,0.0,0.0,0.0,0.0,0.0
1430091495578296450,263,1430091495575598992,,0.0,0.0,0.0,0.0,0.0,0.0,0.0,0.0,0.0,0.0,0.0,0.0,0.0,-0.0186426962425,0.0122509146736,-0.0197079931706,0.0,0.0,0.0,0.0,0.0,0.0,0.0,0.0,0.0,-0.913992736595,9.46293527024,2.12706686605,0.0,0.0,0.0,0.0,0.0,0.0,0.0,0.0,0.0
1430091535578304955,264,1430091535575607039,,0.0,0.0,0.0,0.0,0.0,0.0,0.0,0.0,0.0,0.0,0.0,0.0,0.0,-0.0138488600659,0.0138488600659,-0.0181100477784,0.0,0.0,0.0,0.0,0.0,0.0,0.0,0.0,0.0,-0.945097201453,9.46293527024,2.07203588977,0.0,0.0,0.0,0.0,0.0,0.0,0.0,0.0,0.0
1430091575578301293,265,1430091575575612668,,0.0,0.0,0.0,0.0,0.0,0.0,0.0,0.0,0.0,0.0,0.0,0.0,0.0,-0.0181100477784,0.0138488600659,-0.0181100477784,0.0,0.0,0.0,0.0,0.0,0.0,0.0,0.0,0.0,-0.909207434309,9.44857936338,1.98590044862,0.0,0.0,0.0,0.0,0.0,0.0,0.0,0.0,0.0
1430091615578256006,266,1430091615575572215,,0.0,0.0,0.0,0.0,0.0,0.0,0.0,0.0,0.0,0.0,0.0,0.0,0.0,-0.0175773993144,0.0133162116018,-0.0154468054581,0.0,0.0,0.0,0.0,0.0,0.0,0.0,0.0,0.0,-0.940311899167,9.46293527024,1.99068575091,0.0,0.0,0.0,0.0,0.0,0.0,0.0,0.0,0.0
1430091655578336970,267,1430091655575580803,,0.0,0.0,0.0,0.0,0.0,0.0,0.0,0.0,0.0,0.0,0.0,0.0,0.0,-0.0170447508503,0.0106529692814,-0.0186426962425,0.0,0.0,0.0,0.0,0.0,0.0,0.0,0.0,0.0,-0.866139713736,9.44857936338,2.02418286691,0.0,0.0,0.0,0.0,0.0,0.0,0.0,0.0,0.0
1430091695578390683,268,1430091695575709183,,0.0,0.0,0.0,0.0,0.0,0.0,0.0,0.0,0.0,0.0,0.0,0.0,0.0,-0.0191753447066,0.0143815085299,-0.0186426962425,0.0,0.0,0.0,0.0,0.0,0.0,0.0,0.0,0.0,-0.858961760308,9.50361033967,2.01939756462,0.0,0.0,0.0,0.0,0.0,0.0,0.0,0.0,0.0
1430091735578314604,269,1430091735575608896,,0.0,0.0,0.0,0.0,0.0,0.0,0.0,0.0,0.0,0.0,0.0,0.0,0.0,-0.0165121023862,0.0133162116018,-0.0159794539221,0.0,0.0,0.0,0.0,0.0,0.0,0.0,0.0,0.0,-0.849391155736,9.47011322367,2.03136082034,0.0,0.0,0.0,0.0,0.0,0.0,0.0,0.0,0.0
1430091775578307109,270,1430091775575614317,,0.0,0.0,0.0,0.0,0.0,0.0,0.0,0.0,0.0,0.0,0.0,0.0,0.0,-0.0186426962425,0.0127835631377,-0.0170447508503,0.0,0.0,0.0,0.0,0.0,0.0,0.0,0.0,0.0,-0.858961760308,9.51796624653,1.97154454176,0.0,0.0,0.0,0.0,0.0,0.0,0.0,0.0,0.0
1430091815578248780,271,1430091815575570822,,0.0,0.0,0.0,0.0,0.0,0.0,0.0,0.0,0.0,0.0,0.0,0.0,0.0,-0.0175773993144,0.0122509146736,-0.0191753447066,0.0,0.0,0.0,0.0,0.0,0.0,0.0,0.0,0.0,-0.897244178594,9.52992950224,2.03136082034,0.0,0.0,0.0,0.0,0.0,0.0,0.0,0.0,0.0
1430091855578320243,272,1430091855575625535,,0.0,0.0,0.0,0.0,0.0,0.0,0.0,0.0,0.0,0.0,0.0,0.0,0.0,-0.0186426962425,0.0133162116018,-0.0159794539221,0.0,0.0,0.0,0.0,0.0,0.0,0.0,0.0,0.0,-0.875710318308,9.47250587481,1.96915189062,0.0,0.0,0.0,0.0,0.0,0.0,0.0,0.0,0.0
1430091895578361290,273,1430091895575603081,,0.0,0.0,0.0,0.0,0.0,0.0,0.0,0.0,0.0,0.0,0.0,0.0,0.0,-0.0186426962425,0.0111856177455,-0.0159794539221,0.0,0.0,0.0,0.0,0.0,0.0,0.0,0.0,0.0,-0.892458876308,9.47489852596,1.98829309977,0.0,0.0,0.0,0.0,0.0,0.0,0.0,0.0,0.0
1430091935578259961,274,1430091935575577503,,0.0,0.0,0.0,0.0,0.0,0.0,0.0,0.0,0.0,0.0,0.0,0.0,0.0,-0.0197079931706,0.0122509146736,-0.0170447508503,0.0,0.0,0.0,0.0,0.0,0.0,0.0,0.0,0.0,-0.894851527451,9.50361033967,2.06725058748,0.0,0.0,0.0,0.0,0.0,0.0,0.0,0.0,0.0
1430091975578739799,275,1430091975575562299,,0.0,0.0,0.0,0.0,0.0,0.0,0.0,0.0,0.0,0.0,0.0,0.0,0.0,-0.0170447508503,0.0143815085299,-0.0165121023862,0.0,0.0,0.0,0.0,0.0,0.0,0.0,0.0,0.0,-0.899636829737,9.45575731681,2.09117709891,0.0,0.0,0.0,0.0,0.0,0.0,0.0,0.0,0.0
1430092015578292012,276,1430092015575605221,,0.0,0.0,0.0,0.0,0.0,0.0,0.0,0.0,0.0,0.0,0.0,0.0,0.0,-0.0175773993144,0.0106529692814,-0.0181100477784,0.0,0.0,0.0,0.0,0.0,0.0,0.0,0.0,0.0,-0.916385387738,9.44618671224,2.00264900662,0.0,0.0,0.0,0.0,0.0,0.0,0.0,0.0,0.0
1430092055578255809,277,1430092055575568976,,0.0,0.0,0.0,0.0,0.0,0.0,0.0,0.0,0.0,0.0,0.0,0.0,0.0,-0.0191753447066,0.0117182662096,-0.0191753447066,0.0,0.0,0.0,0.0,0.0,0.0,0.0,0.0,0.0,-0.856569109165,9.44857936338,2.05289468062,0.0,0.0,0.0,0.0,0.0,0.0,0.0,0.0,0.0
1430092095578230480,278,1430092095575561772,,0.0,0.0,0.0,0.0,0.0,0.0,0.0,0.0,0.0,0.0,0.0,0.0,0.0,-0.0165121023862,0.0117182662096,-0.0154468054581,0.0,0.0,0.0,0.0,0.0,0.0,0.0,0.0,0.0,-0.839820551164,9.41508224738,1.98829309977,0.0,0.0,0.0,0.0,0.0,0.0,0.0,0.0,0.0
1430092135578331943,279,1430092135575578943,,0.0,0.0,0.0,0.0,0.0,0.0,0.0,0.0,0.0,0.0,0.0,0.0,0.0,-0.0191753447066,0.014914156994,-0.0186426962425,0.0,0.0,0.0,0.0,0.0,0.0,0.0,0.0,0.0,-0.868532364879,9.42465285195,2.04810937834,0.0,0.0,0.0,0.0,0.0,0.0,0.0,0.0,0.0
1430092175578240823,280,1430092175575574823,,0.0,0.0,0.0,0.0,0.0,0.0,0.0,0.0,0.0,0.0,0.0,0.0,0.0,-0.0181100477784,0.0101203208174,-0.0207732900988,0.0,0.0,0.0,0.0,0.0,0.0,0.0,0.0,0.0,-0.84460585345,9.50600299081,1.95718863491,0.0,0.0,0.0,0.0,0.0,0.0,0.0,0.0,0.0
1430092215578239036,281,1430092215575567411,,0.0,0.0,0.0,0.0,0.0,0.0,0.0,0.0,0.0,0.0,0.0,0.0,0.0,-0.0191753447066,0.0127835631377,-0.0191753447066,0.0,0.0,0.0,0.0,0.0,0.0,0.0,0.0,0.0,-0.861354411451,9.44618671224,2.00025635548,0.0,0.0,0.0,0.0,0.0,0.0,0.0,0.0,0.0
1430092255578228958,282,1430092255575549249,,0.0,0.0,0.0,0.0,0.0,0.0,0.0,0.0,0.0,0.0,0.0,0.0,0.0,-0.0191753447066,0.0159794539221,-0.0191753447066,0.0,0.0,0.0,0.0,0.0,0.0,0.0,0.0,0.0,-0.921170690023,9.42943815424,2.17491988891,0.0,0.0,0.0,0.0,0.0,0.0,0.0,0.0,0.0
1430092295578143588,283,1430092295575547504,,0.0,0.0,0.0,0.0,0.0,0.0,0.0,0.0,0.0,0.0,0.0,0.0,0.0,-0.0197079931706,0.0143815085299,-0.0207732900988,0.0,0.0,0.0,0.0,0.0,0.0,0.0,0.0,0.0,-0.909207434309,9.4940397351,1.98829309977,0.0,0.0,0.0,0.0,0.0,0.0,0.0,0.0,0.0
1430092335578334259,284,1430092335575542134,,0.0,0.0,0.0,0.0,0.0,0.0,0.0,0.0,0.0,0.0,0.0,0.0,0.0,-0.0191753447066,0.0111856177455,-0.0181100477784,0.0,0.0,0.0,0.0,0.0,0.0,0.0,0.0,0.0,-0.930741294595,9.42226020081,2.11749626148,0.0,0.0,0.0,0.0,0.0,0.0,0.0,0.0,0.0
1430092375578292264,285,1430092375575575014,,0.0,0.0,0.0,0.0,0.0,0.0,0.0,0.0,0.0,0.0,0.0,0.0,0.0,-0.0197079931706,0.0111856177455,-0.0197079931706,0.0,0.0,0.0,0.0,0.0,0.0,0.0,0.0,0.0,-0.846998504593,9.47968382824,1.99786370434,0.0,0.0,0.0,0.0,0.0,0.0,0.0,0.0,0.0
1430092415578233560,286,1430092415575564518,,0.0,0.0,0.0,0.0,0.0,0.0,0.0,0.0,0.0,0.0,0.0,0.0,0.0,-0.0175773993144,0.0133162116018,-0.0186426962425,0.0,0.0,0.0,0.0,0.0,0.0,0.0,0.0,0.0,-0.870925016022,9.54907071139,2.03136082034,0.0,0.0,0.0,0.0,0.0,0.0,0.0,0.0,0.0
1430092455578534732,287,1430092455575563398,,0.0,0.0,0.0,0.0,0.0,0.0,0.0,0.0,0.0,0.0,0.0,0.0,0.0,-0.0202406416347,0.0133162116018,-0.0191753447066,0.0,0.0,0.0,0.0,0.0,0.0,0.0,0.0,0.0,-0.913992736595,9.44618671224,1.98350779748,0.0,0.0,0.0,0.0,0.0,0.0,0.0,0.0,0.0
1430092495578211195,288,1430092495575560653,,0.0,0.0,0.0,0.0,0.0,0.0,0.0,0.0,0.0,0.0,0.0,0.0,0.0,-0.0186426962425,0.0117182662096,-0.0175773993144,0.0,0.0,0.0,0.0,0.0,0.0,0.0,0.0,0.0,-0.911600085452,9.47011322367,1.99307840205,0.0,0.0,0.0,0.0,0.0,0.0,0.0,0.0,0.0
1430092535578230283,289,1430092535575574699,,0.0,0.0,0.0,0.0,0.0,0.0,0.0,0.0,0.0,0.0,0.0,0.0,0.0,-0.0197079931706,0.0133162116018,-0.0165121023862,0.0,0.0,0.0,0.0,0.0,0.0,0.0,0.0,0.0,-0.969023712882,9.44140140996,1.95001068148,0.0,0.0,0.0,0.0,0.0,0.0,0.0,0.0,0.0
1430092575578733371,290,1430092575575556038,,0.0,0.0,0.0,0.0,0.0,0.0,0.0,0.0,0.0,0.0,0.0,0.0,0.0,-0.0186426962425,0.0122509146736,-0.0175773993144,0.0,0.0,0.0,0.0,0.0,0.0,0.0,0.0,0.0,-0.887673574023,9.46293527024,2.02418286691,0.0,0.0,0.0,0.0,0.0,0.0,0.0,0.0,0.0
1430092615578372834,291,1430092615575598292,,0.0,0.0,0.0,0.0,0.0,0.0,0.0,0.0,0.0,0.0,0.0,0.0,0.0,-0.0207732900988,0.014914156994,-0.0170447508503,0.0,0.0,0.0,0.0,0.0,0.0,0.0,0.0,0.0,-0.880495620594,9.48446913053,2.05767998291,0.0,0.0,0.0,0.0,0.0,0.0,0.0,0.0,0.0
1430092655578484755,292,1430092655575572880,,0.0,0.0,0.0,0.0,0.0,0.0,0.0,0.0,0.0,0.0,0.0,0.0,0.0,-0.0186426962425,0.0122509146736,-0.0186426962425,0.0,0.0,0.0,0.0,0.0,0.0,0.0,0.0,0.0,-0.925955992309,9.48446913053,2.11031830805,0.0,0.0,0.0,0.0,0.0,0.0,0.0,0.0,0.0
1430092695578244010,293,1430092695575551094,,0.0,0.0,0.0,0.0,0.0,0.0,0.0,0.0,0.0,0.0,0.0,0.0,0.0,-0.0175773993144,0.0111856177455,-0.0170447508503,0.0,0.0,0.0,0.0,0.0,0.0,0.0,0.0,0.0,-0.909207434309,9.44857936338,2.02896816919,0.0,0.0,0.0,0.0,0.0,0.0,0.0,0.0,0.0
1430092735578327557,294,1430092735575606098,,0.0,0.0,0.0,0.0,0.0,0.0,0.0,0.0,0.0,0.0,0.0,0.0,0.0,-0.0191753447066,0.0122509146736,-0.0186426962425,0.0,0.0,0.0,0.0,0.0,0.0,0.0,0.0,0.0,-0.935526596881,9.52275154881,2.03614612262,0.0,0.0,0.0,0.0,0.0,0.0,0.0,0.0,0.0
1430092775578254895,295,1430092775575564145,,0.0,0.0,0.0,0.0,0.0,0.0,0.0,0.0,0.0,0.0,0.0,0.0,0.0,-0.0175773993144,0.0122509146736,-0.0159794539221,0.0,0.0,0.0,0.0,0.0,0.0,0.0,0.0,0.0,-0.892458876308,9.49164708396,2.02657551805,0.0,0.0,0.0,0.0,0.0,0.0,0.0,0.0,0.0
1430092815578721566,296,1430092815575812816,,0.0,0.0,0.0,0.0,0.0,0.0,0.0,0.0,0.0,0.0,0.0,0.0,0.0,-0.0181100477784,0.0138488600659,-0.0170447508503,0.0,0.0,0.0,0.0,0.0,0.0,0.0,0.0,0.0,-0.866139713736,9.50121768853,2.06007263405,0.0,0.0,0.0,0.0,0.0,0.0,0.0,0.0,0.0
1430092855581177113,297,1430092855576294571,,0.0,0.0,0.0,0.0,0.0,0.0,0.0,0.0,0.0,0.0,0.0,0.0,0.0,-0.0191753447066,0.0117182662096,-0.0175773993144,0.0,0.0,0.0,0.0,0.0,0.0,0.0,0.0,0.0,-0.880495620594,9.53950010681,2.04093142491,0.0,0.0,0.0,0.0,0.0,0.0,0.0,0.0,0.0
1430092895578004451,298,1430092895575628826,,0.0,0.0,0.0,0.0,0.0,0.0,0.0,0.0,0.0,0.0,0.0,0.0,0.0,-0.0207732900988,0.0133162116018,-0.0175773993144,0.0,0.0,0.0,0.0,0.0,0.0,0.0,0.0,0.0,-0.923563341166,9.49164708396,2.0624652852,0.0,0.0,0.0,0.0,0.0,0.0,0.0,0.0,0.0
1430092935578273664,299,1430092935575601330,,0.0,0.0,0.0,0.0,0.0,0.0,0.0,0.0,0.0,0.0,0.0,0.0,0.0,-0.0181100477784,0.0127835631377,-0.0191753447066,0.0,0.0,0.0,0.0,0.0,0.0,0.0,0.0,0.0,-0.897244178594,9.45575731681,2.06964323862,0.0,0.0,0.0,0.0,0.0,0.0,0.0,0.0,0.0
1430092975578220085,300,1430092975575565627,,0.0,0.0,0.0,0.0,0.0,0.0,0.0,0.0,0.0,0.0,0.0,0.0,0.0,-0.0170447508503,0.0106529692814,-0.0170447508503,0.0,0.0,0.0,0.0,0.0,0.0,0.0,0.0,0.0,-0.925955992309,9.48925443281,2.0792138432,0.0,0.0,0.0,0.0,0.0,0.0,0.0,0.0,0.0
1430093015578449673,301,1430093015575907132,,0.0,0.0,0.0,0.0,0.0,0.0,0.0,0.0,0.0,0.0,0.0,0.0,0.0,-0.0186426962425,0.0127835631377,-0.014914156994,0.0,0.0,0.0,0.0,0.0,0.0,0.0,0.0,0.0,-0.935526596881,9.47489852596,2.00504165777,0.0,0.0,0.0,0.0,0.0,0.0,0.0,0.0,0.0
1430093055578232345,302,1430093055575554095,,0.0,0.0,0.0,0.0,0.0,0.0,0.0,0.0,0.0,0.0,0.0,0.0,0.0,-0.0175773993144,0.0133162116018,-0.0175773993144,0.0,0.0,0.0,0.0,0.0,0.0,0.0,0.0,0.0,-0.803930784021,9.42465285195,2.08160649434,0.0,0.0,0.0,0.0,0.0,0.0,0.0,0.0,0.0
1430093095578297850,303,1430093095575550225,,0.0,0.0,0.0,0.0,0.0,0.0,0.0,0.0,0.0,0.0,0.0,0.0,0.0,-0.0175773993144,0.0111856177455,-0.0175773993144,0.0,0.0,0.0,0.0,0.0,0.0,0.0,0.0,0.0,-0.933133945738,9.42943815424,1.99307840205,0.0,0.0,0.0,0.0,0.0,0.0,0.0,0.0,0.0
1430093135578925021,304,1430093135575708563,,0.0,0.0,0.0,0.0,0.0,0.0,0.0,0.0,0.0,0.0,0.0,0.0,0.0,-0.0165121023862,0.014914156994,-0.0181100477784,0.0,0.0,0.0,0.0,0.0,0.0,0.0,0.0,0.0,-0.873317667165,9.48207647938,2.08160649434,0.0,0.0,0.0,0.0,0.0,0.0,0.0,0.0,0.0
1430093175578248442,305,1430093175575567401,,0.0,0.0,0.0,0.0,0.0,0.0,0.0,0.0,0.0,0.0,0.0,0.0,0.0,-0.0181100477784,0.0122509146736,-0.0181100477784,0.0,0.0,0.0,0.0,0.0,0.0,0.0,0.0,0.0,-0.875710318308,9.49882503739,2.06725058748,0.0,0.0,0.0,0.0,0.0,0.0,0.0,0.0,0.0
1430093215578115406,306,1430093215575554031,,0.0,0.0,0.0,0.0,0.0,0.0,0.0,0.0,0.0,0.0,0.0,0.0,0.0,-0.0181100477784,0.0143815085299,-0.0170447508503,0.0,0.0,0.0,0.0,0.0,0.0,0.0,0.0,0.0,-0.928348643452,9.48686178167,2.01939756462,0.0,0.0,0.0,0.0,0.0,0.0,0.0,0.0,0.0
1430093255578085119,307,1430093255575571160,,0.0,0.0,0.0,0.0,0.0,0.0,0.0,0.0,0.0,0.0,0.0,0.0,0.0,-0.0159794539221,0.0106529692814,-0.0170447508503,0.0,0.0,0.0,0.0,0.0,0.0,0.0,0.0,0.0,-0.837427900021,9.55146336253,1.98111514634,0.0,0.0,0.0,0.0,0.0,0.0,0.0,0.0,0.0
1430093295578460707,308,1430093295575753457,,0.0,0.0,0.0,0.0,0.0,0.0,0.0,0.0,0.0,0.0,0.0,0.0,0.0,-0.0154468054581,0.0111856177455,-0.0197079931706,0.0,0.0,0.0,0.0,0.0,0.0,0.0,0.0,0.0,-0.894851527451,9.47968382824,1.93326212348,0.0,0.0,0.0,0.0,0.0,0.0,0.0,0.0,0.0
1430093335579605295,309,1430093335575557211,,0.0,0.0,0.0,0.0,0.0,0.0,0.0,0.0,0.0,0.0,0.0,0.0,0.0,-0.0175773993144,0.0117182662096,-0.0159794539221,0.0,0.0,0.0,0.0,0.0,0.0,0.0,0.0,0.0,-0.861354411451,9.44857936338,2.05528733177,0.0,0.0,0.0,0.0,0.0,0.0,0.0,0.0,0.0
1430093375578231675,310,1430093375575550383,,0.0,0.0,0.0,0.0,0.0,0.0,0.0,0.0,0.0,0.0,0.0,0.0,0.0,-0.0159794539221,0.0117182662096,-0.0165121023862,0.0,0.0,0.0,0.0,0.0,0.0,0.0,0.0,0.0,-0.858961760308,9.53232215339,1.96436658834,0.0,0.0,0.0,0.0,0.0,0.0,0.0,0.0,0.0
1430093415578004929,311,1430093415575589221,,0.0,0.0,0.0,0.0,0.0,0.0,0.0,0.0,0.0,0.0,0.0,0.0,0.0,-0.0165121023862,0.0127835631377,-0.0159794539221,0.0,0.0,0.0,0.0,0.0,0.0,0.0,0.0,0.0,-0.933133945738,9.47250587481,2.10792565691,0.0,0.0,0.0,0.0,0.0,0.0,0.0,0.0,0.0
1430093455578961476,312,1430093455575551976,,0.0,0.0,0.0,0.0,0.0,0.0,0.0,0.0,0.0,0.0,0.0,0.0,0.0,-0.0202406416347,0.0143815085299,-0.0175773993144,0.0,0.0,0.0,0.0,0.0,0.0,0.0,0.0,0.0,-0.918778038881,9.4270455031,2.03375347148,0.0,0.0,0.0,0.0,0.0,0.0,0.0,0.0,0.0
1430093495578226439,313,1430093495575555189,,0.0,0.0,0.0,0.0,0.0,0.0,0.0,0.0,0.0,0.0,0.0,0.0,0.0,-0.0191753447066,0.0122509146736,-0.0191753447066,0.0,0.0,0.0,0.0,0.0,0.0,0.0,0.0,0.0,-0.911600085452,9.48207647938,2.00982696005,0.0,0.0,0.0,0.0,0.0,0.0,0.0,0.0,0.0
1430093535578214819,314,1430093535575554569,,0.0,0.0,0.0,0.0,0.0,0.0,0.0,0.0,0.0,0.0,0.0,0.0,0.0,-0.0186426962425,0.0138488600659,-0.0165121023862,0.0,0.0,0.0,0.0,0.0,0.0,0.0,0.0,0.0,-0.880495620594,9.48686178167,1.98829309977,0.0,0.0,0.0,0.0,0.0,0.0,0.0,0.0,0.0
1430093575578401323,315,1430093575575612657,,0.0,0.0,0.0,0.0,0.0,0.0,0.0,0.0,0.0,0.0,0.0,0.0,0.0,-0.0191753447066,0.0127835631377,-0.0170447508503,0.0,0.0,0.0,0.0,0.0,0.0,0.0,0.0,0.0,-0.913992736595,9.45575731681,2.02896816919,0.0,0.0,0.0,0.0,0.0,0.0,0.0,0.0,0.0
1430093615578470537,316,1430093615575633162,,0.0,0.0,0.0,0.0,0.0,0.0,0.0,0.0,0.0,0.0,0.0,0.0,0.0,-0.0181100477784,0.0117182662096,-0.0191753447066,0.0,0.0,0.0,0.0,0.0,0.0,0.0,0.0,0.0,-0.890066225166,9.47489852596,2.0792138432,0.0,0.0,0.0,0.0,0.0,0.0,0.0,0.0,0.0
1430093655578423833,317,1430093655575705875,,0.0,0.0,0.0,0.0,0.0,0.0,0.0,0.0,0.0,0.0,0.0,0.0,0.0,-0.0154468054581,0.0127835631377,-0.0170447508503,0.0,0.0,0.0,0.0,0.0,0.0,0.0,0.0,0.0,-0.933133945738,9.47489852596,1.98829309977,0.0,0.0,0.0,0.0,0.0,0.0,0.0,0.0,0.0
1430093695578321004,318,1430093695575628754,,0.0,0.0,0.0,0.0,0.0,0.0,0.0,0.0,0.0,0.0,0.0,0.0,0.0,-0.0170447508503,0.014914156994,-0.0170447508503,0.0,0.0,0.0,0.0,0.0,0.0,0.0,0.0,0.0,-0.856569109165,9.49643238624,2.04810937834,0.0,0.0,0.0,0.0,0.0,0.0,0.0,0.0,0.0
1430093735578981467,319,1430093735575584259,,0.0,0.0,0.0,0.0,0.0,0.0,0.0,0.0,0.0,0.0,0.0,0.0,0.0,-0.0170447508503,0.0106529692814,-0.0159794539221,0.0,0.0,0.0,0.0,0.0,0.0,0.0,0.0,0.0,-0.866139713736,9.4605426191,2.03136082034,0.0,0.0,0.0,0.0,0.0,0.0,0.0,0.0,0.0
1430093775578298514,320,1430093775575638931,,0.0,0.0,0.0,0.0,0.0,0.0,0.0,0.0,0.0,0.0,0.0,0.0,0.0,-0.0170447508503,0.0117182662096,-0.0202406416347,0.0,0.0,0.0,0.0,0.0,0.0,0.0,0.0,0.0,-0.90202948088,9.44618671224,2.02179021577,0.0,0.0,0.0,0.0,0.0,0.0,0.0,0.0,0.0
1430093815578560894,321,1430093815575746769,,0.0,0.0,0.0,0.0,0.0,0.0,0.0,0.0,0.0,0.0,0.0,0.0,0.0,-0.0165121023862,0.0127835631377,-0.0175773993144,0.0,0.0,0.0,0.0,0.0,0.0,0.0,0.0,0.0,-0.882888271737,9.43661610767,2.02657551805,0.0,0.0,0.0,0.0,0.0,0.0,0.0,0.0,0.0
1430093855578566273,322,1430093855575688773,,0.0,0.0,0.0,0.0,0.0,0.0,0.0,0.0,0.0,0.0,0.0,0.0,0.0,-0.0170447508503,0.0101203208174,-0.0191753447066,0.0,0.0,0.0,0.0,0.0,0.0,0.0,0.0,0.0,-0.890066225166,9.43183080538,2.00743430891,0.0,0.0,0.0,0.0,0.0,0.0,0.0,0.0,0.0
1430093895578273320,323,1430093895575595653,,0.0,0.0,0.0,0.0,0.0,0.0,0.0,0.0,0.0,0.0,0.0,0.0,0.0,-0.0154468054581,0.0138488600659,-0.0175773993144,0.0,0.0,0.0,0.0,0.0,0.0,0.0,0.0,0.0,-0.930741294595,9.48686178167,2.12467421491,0.0,0.0,0.0,0.0,0.0,0.0,0.0,0.0,0.0
1430093935578319866,324,1430093935575618075,,0.0,0.0,0.0,0.0,0.0,0.0,0.0,0.0,0.0,0.0,0.0,0.0,0.0,-0.0175773993144,0.0117182662096,-0.0175773993144,0.0,0.0,0.0,0.0,0.0,0.0,0.0,0.0,0.0,-0.870925016022,9.4772911771,2.01939756462,0.0,0.0,0.0,0.0,0.0,0.0,0.0,0.0,0.0
1430093975578335329,325,1430093975575654079,,0.0,0.0,0.0,0.0,0.0,0.0,0.0,0.0,0.0,0.0,0.0,0.0,0.0,-0.0186426962425,0.0122509146736,-0.0186426962425,0.0,0.0,0.0,0.0,0.0,0.0,0.0,0.0,0.0,-0.918778038881,9.50121768853,2.0457167272,0.0,0.0,0.0,0.0,0.0,0.0,0.0,0.0,0.0
1430094015578312043,326,1430094015575631334,,0.0,0.0,0.0,0.0,0.0,0.0,0.0,0.0,0.0,0.0,0.0,0.0,0.0,-0.014914156994,0.0133162116018,-0.0191753447066,0.0,0.0,0.0,0.0,0.0,0.0,0.0,0.0,0.0,-0.913992736595,9.49164708396,2.08639179662,0.0,0.0,0.0,0.0,0.0,0.0,0.0,0.0,0.0
1430094055578457339,327,1430094055575590839,,0.0,0.0,0.0,0.0,0.0,0.0,0.0,0.0,0.0,0.0,0.0,0.0,0.0,-0.0186426962425,0.014914156994,-0.0191753447066,0.0,0.0,0.0,0.0,0.0,0.0,0.0,0.0,0.0,-0.887673574023,9.49164708396,2.00264900662,0.0,0.0,0.0,0.0,0.0,0.0,0.0,0.0,0.0
1430094095578466969,328,1430094095575596719,,0.0,0.0,0.0,0.0,0.0,0.0,0.0,0.0,0.0,0.0,0.0,0.0,0.0,-0.0175773993144,0.0111856177455,-0.0170447508503,0.0,0.0,0.0,0.0,0.0,0.0,0.0,0.0,0.0,-0.94270455031,9.48446913053,2.12706686605,0.0,0.0,0.0,0.0,0.0,0.0,0.0,0.0,0.0
1430094135578293640,329,1430094135575627057,,0.0,0.0,0.0,0.0,0.0,0.0,0.0,0.0,0.0,0.0,0.0,0.0,0.0,-0.0170447508503,0.0117182662096,-0.0191753447066,0.0,0.0,0.0,0.0,0.0,0.0,0.0,0.0,0.0,-0.945097201453,9.46293527024,2.02418286691,0.0,0.0,0.0,0.0,0.0,0.0,0.0,0.0,0.0
1430094175578841437,330,1430094175576045228,,0.0,0.0,0.0,0.0,0.0,0.0,0.0,0.0,0.0,0.0,0.0,0.0,0.0,-0.0181100477784,0.0111856177455,-0.0181100477784,0.0,0.0,0.0,0.0,0.0,0.0,0.0,0.0,0.0,-0.878102969451,9.46532792138,2.0624652852,0.0,0.0,0.0,0.0,0.0,0.0,0.0,0.0,0.0
1430094215578309441,331,1430094215575640108,,0.0,0.0,0.0,0.0,0.0,0.0,0.0,0.0,0.0,0.0,0.0,0.0,0.0,-0.0186426962425,0.0117182662096,-0.0159794539221,0.0,0.0,0.0,0.0,0.0,0.0,0.0,0.0,0.0,-0.870925016022,9.56581926939,2.02418286691,0.0,0.0,0.0,0.0,0.0,0.0,0.0,0.0,0.0
1430094255578283654,332,1430094255575620488,,0.0,0.0,0.0,0.0,0.0,0.0,0.0,0.0,0.0,0.0,0.0,0.0,0.0,-0.0197079931706,0.0138488600659,-0.0165121023862,0.0,0.0,0.0,0.0,0.0,0.0,0.0,0.0,0.0,-0.897244178594,9.48446913053,2.09835505234,0.0,0.0,0.0,0.0,0.0,0.0,0.0,0.0,0.0
1430094295579156951,333,1430094295575567618,,0.0,0.0,0.0,0.0,0.0,0.0,0.0,0.0,0.0,0.0,0.0,0.0,0.0,-0.0181100477784,0.0138488600659,-0.0186426962425,0.0,0.0,0.0,0.0,0.0,0.0,0.0,0.0,0.0,-0.851783806879,9.44857936338,2.04332407605,0.0,0.0,0.0,0.0,0.0,0.0,0.0,0.0,0.0
1430094335578292039,334,1430094335575610956,,0.0,0.0,0.0,0.0,0.0,0.0,0.0,0.0,0.0,0.0,0.0,0.0,0.0,-0.0191753447066,0.0133162116018,-0.0181100477784,0.0,0.0,0.0,0.0,0.0,0.0,0.0,0.0,0.0,-0.918778038881,9.48686178167,1.98590044862,0.0,0.0,0.0,0.0,0.0,0.0,0.0,0.0,0.0
1430094375578518377,335,1430094375575597877,,0.0,0.0,0.0,0.0,0.0,0.0,0.0,0.0,0.0,0.0,0.0,0.0,0.0,-0.0191753447066,0.0101203208174,-0.0165121023862,0.0,0.0,0.0,0.0,0.0,0.0,0.0,0.0,0.0,-0.904422132023,9.46293527024,2.08399914548,0.0,0.0,0.0,0.0,0.0,0.0,0.0,0.0,0.0
1430094415578828965,336,1430094415575567549,,0.0,0.0,0.0,0.0,0.0,0.0,0.0,0.0,0.0,0.0,0.0,0.0,0.0,-0.0181100477784,0.0117182662096,-0.0175773993144,0.0,0.0,0.0,0.0,0.0,0.0,0.0,0.0,0.0,-0.882888271737,9.45575731681,2.02179021577,0.0,0.0,0.0,0.0,0.0,0.0,0.0,0.0,0.0
1430094455578296137,337,1430094455575582595,,0.0,0.0,0.0,0.0,0.0,0.0,0.0,0.0,0.0,0.0,0.0,0.0,0.0,-0.0186426962425,0.0122509146736,-0.0186426962425,0.0,0.0,0.0,0.0,0.0,0.0,0.0,0.0,0.0,-0.954667806024,9.51318094424,2.05050202948,0.0,0.0,0.0,0.0,0.0,0.0,0.0,0.0,0.0
1430094495578251600,338,1430094495575572058,,0.0,0.0,0.0,0.0,0.0,0.0,0.0,0.0,0.0,0.0,0.0,0.0,0.0,-0.0197079931706,0.0133162116018,-0.0197079931706,0.0,0.0,0.0,0.0,0.0,0.0,0.0,0.0,0.0,-0.916385387738,9.4437940611,2.03614612262,0.0,0.0,0.0,0.0,0.0,0.0,0.0,0.0,0.0
1430094535578314730,339,1430094535575556730,,0.0,0.0,0.0,0.0,0.0,0.0,0.0,0.0,0.0,0.0,0.0,0.0,0.0,-0.0170447508503,0.0133162116018,-0.0159794539221,0.0,0.0,0.0,0.0,0.0,0.0,0.0,0.0,0.0,-0.906814783166,9.47011322367,2.04093142491,0.0,0.0,0.0,0.0,0.0,0.0,0.0,0.0,0.0
1430094575578841651,340,1430094575576238484,,0.0,0.0,0.0,0.0,0.0,0.0,0.0,0.0,0.0,0.0,0.0,0.0,0.0,-0.0186426962425,0.0127835631377,-0.0170447508503,0.0,0.0,0.0,0.0,0.0,0.0,0.0,0.0,0.0,-0.952275154881,9.49643238624,1.99786370434,0.0,0.0,0.0,0.0,0.0,0.0,0.0,0.0,0.0
1430094615578311989,341,1430094615575593864,,0.0,0.0,0.0,0.0,0.0,0.0,0.0,0.0,0.0,0.0,0.0,0.0,0.0,-0.0175773993144,0.014914156994,-0.0186426962425,0.0,0.0,0.0,0.0,0.0,0.0,0.0,0.0,0.0,-0.882888271737,9.54907071139,2.13903012177,0.0,0.0,0.0,0.0,0.0,0.0,0.0,0.0,0.0
1430094655583069744,342,1430094655575602036,,0.0,0.0,0.0,0.0,0.0,0.0,0.0,0.0,0.0,0.0,0.0,0.0,0.0,-0.0191753447066,0.0127835631377,-0.0186426962425,0.0,0.0,0.0,0.0,0.0,0.0,0.0,0.0,0.0,-0.880495620594,9.49164708396,2.04093142491,0.0,0.0,0.0,0.0,0.0,0.0,0.0,0.0,0.0
1430094695578285707,343,1430094695575607290,,0.0,0.0,0.0,0.0,0.0,0.0,0.0,0.0,0.0,0.0,0.0,0.0,0.0,-0.0181100477784,0.0122509146736,-0.0207732900988,0.0,0.0,0.0,0.0,0.0,0.0,0.0,0.0,0.0,-0.892458876308,9.51318094424,2.06964323862,0.0,0.0,0.0,0.0,0.0,0.0,0.0,0.0,0.0
1430094735578539003,344,1430094735575646378,,0.0,0.0,0.0,0.0,0.0,0.0,0.0,0.0,0.0,0.0,0.0,0.0,0.0,-0.0175773993144,0.0143815085299,-0.0191753447066,0.0,0.0,0.0,0.0,0.0,0.0,0.0,0.0,0.0,-0.897244178594,9.43900875881,1.97154454176,0.0,0.0,0.0,0.0,0.0,0.0,0.0,0.0,0.0
1430094775578298883,345,1430094775575588091,,0.0,0.0,0.0,0.0,0.0,0.0,0.0,0.0,0.0,0.0,0.0,0.0,0.0,-0.0202406416347,0.0127835631377,-0.0186426962425,0.0,0.0,0.0,0.0,0.0,0.0,0.0,0.0,0.0,-0.906814783166,9.46772057253,2.09835505234,0.0,0.0,0.0,0.0,0.0,0.0,0.0,0.0,0.0
1430094815578415388,346,1430094815575659805,,0.0,0.0,0.0,0.0,0.0,0.0,0.0,0.0,0.0,0.0,0.0,0.0,0.0,-0.0207732900988,0.0122509146736,-0.0181100477784,0.0,0.0,0.0,0.0,0.0,0.0,0.0,0.0,0.0,-0.90202948088,9.46772057253,2.03136082034,0.0,0.0,0.0,0.0,0.0,0.0,0.0,0.0,0.0
1430094855578510726,347,1430094855575599476,,0.0,0.0,0.0,0.0,0.0,0.0,0.0,0.0,0.0,0.0,0.0,0.0,0.0,-0.0191753447066,0.0138488600659,-0.0175773993144,0.0,0.0,0.0,0.0,0.0,0.0,0.0,0.0,0.0,-0.870925016022,9.44857936338,1.98350779748,0.0,0.0,0.0,0.0,0.0,0.0,0.0,0.0,0.0
1430094895579043231,348,1430094895576441314,,0.0,0.0,0.0,0.0,0.0,0.0,0.0,0.0,0.0,0.0,0.0,0.0,0.0,-0.0202406416347,0.0154468054581,-0.0191753447066,0.0,0.0,0.0,0.0,0.0,0.0,0.0,0.0,0.0,-0.897244178594,9.53710745567,2.03375347148,0.0,0.0,0.0,0.0,0.0,0.0,0.0,0.0,0.0
1430094935578302652,349,1430094935575631777,,0.0,0.0,0.0,0.0,0.0,0.0,0.0,0.0,0.0,0.0,0.0,0.0,0.0,-0.0175773993144,0.0143815085299,-0.0191753447066,0.0,0.0,0.0,0.0,0.0,0.0,0.0,0.0,0.0,-0.880495620594,9.49643238624,1.98350779748,0.0,0.0,0.0,0.0,0.0,0.0,0.0,0.0,0.0
1430094975578366282,350,1430094975575553949,,0.0,0.0,0.0,0.0,0.0,0.0,0.0,0.0,0.0,0.0,0.0,0.0,0.0,-0.0154468054581,0.0127835631377,-0.0165121023862,0.0,0.0,0.0,0.0,0.0,0.0,0.0,0.0,0.0,-0.911600085452,9.51318094424,2.09356975005,0.0,0.0,0.0,0.0,0.0,0.0,0.0,0.0,0.0
1430095015578284287,351,1430095015575577995,,0.0,0.0,0.0,0.0,0.0,0.0,0.0,0.0,0.0,0.0,0.0,0.0,0.0,-0.0186426962425,0.0143815085299,-0.0181100477784,0.0,0.0,0.0,0.0,0.0,0.0,0.0,0.0,0.0,-0.904422132023,9.4772911771,2.06007263405,0.0,0.0,0.0,0.0,0.0,0.0,0.0,0.0,0.0
1430095055578426833,352,1430095055575611375,,0.0,0.0,0.0,0.0,0.0,0.0,0.0,0.0,0.0,0.0,0.0,0.0,0.0,-0.0165121023862,0.0127835631377,-0.0154468054581,0.0,0.0,0.0,0.0,0.0,0.0,0.0,0.0,0.0,-0.921170690023,9.55146336253,2.13663747063,0.0,0.0,0.0,0.0,0.0,0.0,0.0,0.0,0.0
1430095095578337213,353,1430095095575628880,,0.0,0.0,0.0,0.0,0.0,0.0,0.0,0.0,0.0,0.0,0.0,0.0,0.0,-0.0175773993144,0.0138488600659,-0.0197079931706,0.0,0.0,0.0,0.0,0.0,0.0,0.0,0.0,0.0,-0.837427900021,9.48207647938,1.93326212348,0.0,0.0,0.0,0.0,0.0,0.0,0.0,0.0,0.0
1430095135578700509,354,1430095135575762176,,0.0,0.0,0.0,0.0,0.0,0.0,0.0,0.0,0.0,0.0,0.0,0.0,0.0,-0.0175773993144,0.0111856177455,-0.0170447508503,0.0,0.0,0.0,0.0,0.0,0.0,0.0,0.0,0.0,-0.88528092288,9.4605426191,1.95958128605,0.0,0.0,0.0,0.0,0.0,0.0,0.0,0.0,0.0
1430095175578509264,355,1430095175575614347,,0.0,0.0,0.0,0.0,0.0,0.0,0.0,0.0,0.0,0.0,0.0,0.0,0.0,-0.0165121023862,0.0106529692814,-0.0159794539221,0.0,0.0,0.0,0.0,0.0,0.0,0.0,0.0,0.0,-0.909207434309,9.43661610767,1.99307840205,0.0,0.0,0.0,0.0,0.0,0.0,0.0,0.0,0.0
1430095215578264852,356,1430095215575583894,,0.0,0.0,0.0,0.0,0.0,0.0,0.0,0.0,0.0,0.0,0.0,0.0,0.0,-0.0202406416347,0.0143815085299,-0.0175773993144,0.0,0.0,0.0,0.0,0.0,0.0,0.0,0.0,0.0,-0.923563341166,9.5275368511,2.02418286691,0.0,0.0,0.0,0.0,0.0,0.0,0.0,0.0,0.0
1430095255578314690,357,1430095255575614315,,0.0,0.0,0.0,0.0,0.0,0.0,0.0,0.0,0.0,0.0,0.0,0.0,0.0,-0.0186426962425,0.0111856177455,-0.0170447508503,0.0,0.0,0.0,0.0,0.0,0.0,0.0,0.0,0.0,-0.866139713736,9.48207647938,2.05528733177,0.0,0.0,0.0,0.0,0.0,0.0,0.0,0.0,0.0
1430095295578272445,358,1430095295575598778,,0.0,0.0,0.0,0.0,0.0,0.0,0.0,0.0,0.0,0.0,0.0,0.0,0.0,-0.0154468054581,0.0106529692814,-0.0186426962425,0.0,0.0,0.0,0.0,0.0,0.0,0.0,0.0,0.0,-0.825464644307,9.4940397351,1.98111514634,0.0,0.0,0.0,0.0,0.0,0.0,0.0,0.0,0.0
1430095335579252617,359,1430095335575772283,,0.0,0.0,0.0,0.0,0.0,0.0,0.0,0.0,0.0,0.0,0.0,0.0,0.0,-0.0186426962425,0.0138488600659,-0.0197079931706,0.0,0.0,0.0,0.0,0.0,0.0,0.0,0.0,0.0,-0.839820551164,9.48446913053,2.07203588977,0.0,0.0,0.0,0.0,0.0,0.0,0.0,0.0,0.0
1430095375581299496,360,1430095375575612663,,0.0,0.0,0.0,0.0,0.0,0.0,0.0,0.0,0.0,0.0,0.0,0.0,0.0,-0.0181100477784,0.0111856177455,-0.0170447508503,0.0,0.0,0.0,0.0,0.0,0.0,0.0,0.0,0.0,-0.866139713736,9.43661610767,2.00743430891,0.0,0.0,0.0,0.0,0.0,0.0,0.0,0.0,0.0
1430095415578260501,361,1430095415575575084,,0.0,0.0,0.0,0.0,0.0,0.0,0.0,0.0,0.0,0.0,0.0,0.0,0.0,-0.0191753447066,0.0127835631377,-0.0197079931706,0.0,0.0,0.0,0.0,0.0,0.0,0.0,0.0,0.0,-0.935526596881,9.4605426191,2.04810937834,0.0,0.0,0.0,0.0,0.0,0.0,0.0,0.0,0.0
1430095455578248423,362,1430095455575563214,,0.0,0.0,0.0,0.0,0.0,0.0,0.0,0.0,0.0,0.0,0.0,0.0,0.0,-0.0191753447066,0.0127835631377,-0.0170447508503,0.0,0.0,0.0,0.0,0.0,0.0,0.0,0.0,0.0,-0.875710318308,9.43900875881,2.02657551805,0.0,0.0,0.0,0.0,0.0,0.0,0.0,0.0,0.0
1430095495578551094,363,1430095495575601844,,0.0,0.0,0.0,0.0,0.0,0.0,0.0,0.0,0.0,0.0,0.0,0.0,0.0,-0.0159794539221,0.0138488600659,-0.0175773993144,0.0,0.0,0.0,0.0,0.0,0.0,0.0,0.0,0.0,-0.868532364879,9.48446913053,2.10074770348,0.0,0.0,0.0,0.0,0.0,0.0,0.0,0.0,0.0
1430095535578292057,364,1430095535575610432,,0.0,0.0,0.0,0.0,0.0,0.0,0.0,0.0,0.0,0.0,0.0,0.0,0.0,-0.0181100477784,0.0106529692814,-0.0213059385628,0.0,0.0,0.0,0.0,0.0,0.0,0.0,0.0,0.0,-0.933133945738,9.5107882931,2.05289468062,0.0,0.0,0.0,0.0,0.0,0.0,0.0,0.0,0.0
1430095575578298937,365,1430095575575607270,,0.0,0.0,0.0,0.0,0.0,0.0,0.0,0.0,0.0,0.0,0.0,0.0,0.0,-0.0181100477784,0.0106529692814,-0.0175773993144,0.0,0.0,0.0,0.0,0.0,0.0,0.0,0.0,0.0,-0.890066225166,9.49164708396,2.03853877377,0.0,0.0,0.0,0.0,0.0,0.0,0.0,0.0,0.0
1430095615578425400,366,1430095615575607692,,0.0,0.0,0.0,0.0,0.0,0.0,0.0,0.0,0.0,0.0,0.0,0.0,0.0,-0.0186426962425,0.0127835631377,-0.0186426962425,0.0,0.0,0.0,0.0,0.0,0.0,0.0,0.0,0.0,-0.875710318308,9.47968382824,2.01700491348,0.0,0.0,0.0,0.0,0.0,0.0,0.0,0.0,0.0
1430095655578290905,367,1430095655575608530,,0.0,0.0,0.0,0.0,0.0,0.0,0.0,0.0,0.0,0.0,0.0,0.0,0.0,-0.0186426962425,0.0133162116018,-0.0181100477784,0.0,0.0,0.0,0.0,0.0,0.0,0.0,0.0,0.0,-0.897244178594,9.46532792138,2.0624652852,0.0,0.0,0.0,0.0,0.0,0.0,0.0,0.0,0.0
1430095695578280159,368,1430095695575594951,,0.0,0.0,0.0,0.0,0.0,0.0,0.0,0.0,0.0,0.0,0.0,0.0,0.0,-0.0170447508503,0.0122509146736,-0.0170447508503,0.0,0.0,0.0,0.0,0.0,0.0,0.0,0.0,0.0,-0.957060457167,9.42943815424,2.01461226234,0.0,0.0,0.0,0.0,0.0,0.0,0.0,0.0,0.0
1430095735578271664,369,1430095735575595831,,0.0,0.0,0.0,0.0,0.0,0.0,0.0,0.0,0.0,0.0,0.0,0.0,0.0,-0.0197079931706,0.0133162116018,-0.0202406416347,0.0,0.0,0.0,0.0,0.0,0.0,0.0,0.0,0.0,-0.940311899167,9.43183080538,1.97872249519,0.0,0.0,0.0,0.0,0.0,0.0,0.0,0.0,0.0
1430095775578292044,370,1430095775575613919,,0.0,0.0,0.0,0.0,0.0,0.0,0.0,0.0,0.0,0.0,0.0,0.0,0.0,-0.0170447508503,0.0133162116018,-0.0202406416347,0.0,0.0,0.0,0.0,0.0,0.0,0.0,0.0,0.0,-0.90202948088,9.46293527024,2.02896816919,0.0,0.0,0.0,0.0,0.0,0.0,0.0,0.0,0.0
1430095815578311799,371,1430095815575619340,,0.0,0.0,0.0,0.0,0.0,0.0,0.0,0.0,0.0,0.0,0.0,0.0,0.0,-0.0159794539221,0.0133162116018,-0.0159794539221,0.0,0.0,0.0,0.0,0.0,0.0,0.0,0.0,0.0,-0.906814783166,9.45814996796,1.95718863491,0.0,0.0,0.0,0.0,0.0,0.0,0.0,0.0,0.0
1430095855578533554,372,1430095855575608887,,0.0,0.0,0.0,0.0,0.0,0.0,0.0,0.0,0.0,0.0,0.0,0.0,0.0,-0.0207732900988,0.0133162116018,-0.0175773993144,0.0,0.0,0.0,0.0,0.0,0.0,0.0,0.0,0.0,-0.94270455031,9.37201452681,1.97632984405,0.0,0.0,0.0,0.0,0.0,0.0,0.0,0.0,0.0
1430095895578311600,373,1430095895575611600,,0.0,0.0,0.0,0.0,0.0,0.0,0.0,0.0,0.0,0.0,0.0,0.0,0.0,-0.0191753447066,0.0133162116018,-0.0186426962425,0.0,0.0,0.0,0.0,0.0,0.0,0.0,0.0,0.0,-0.911600085452,9.46532792138,1.99786370434,0.0,0.0,0.0,0.0,0.0,0.0,0.0,0.0,0.0
1430095935578429063,374,1430095935575724105,,0.0,0.0,0.0,0.0,0.0,0.0,0.0,0.0,0.0,0.0,0.0,0.0,0.0,-0.0197079931706,0.0122509146736,-0.0213059385628,0.0,0.0,0.0,0.0,0.0,0.0,0.0,0.0,0.0,-0.88528092288,9.46532792138,2.03375347148,0.0,0.0,0.0,0.0,0.0,0.0,0.0,0.0,0.0
1430095975578708860,375,1430095975575592360,,0.0,0.0,0.0,0.0,0.0,0.0,0.0,0.0,0.0,0.0,0.0,0.0,0.0,-0.0191753447066,0.0111856177455,-0.0170447508503,0.0,0.0,0.0,0.0,0.0,0.0,0.0,0.0,0.0,-0.928348643452,9.44857936338,2.05050202948,0.0,0.0,0.0,0.0,0.0,0.0,0.0,0.0,0.0
1430096015578448281,376,1430096015575604906,,0.0,0.0,0.0,0.0,0.0,0.0,0.0,0.0,0.0,0.0,0.0,0.0,0.0,-0.0170447508503,0.0106529692814,-0.0175773993144,0.0,0.0,0.0,0.0,0.0,0.0,0.0,0.0,0.0,-0.971416364025,9.48446913053,1.92369151891,0.0,0.0,0.0,0.0,0.0,0.0,0.0,0.0,0.0
1430096055578284119,377,1430096055575601994,,0.0,0.0,0.0,0.0,0.0,0.0,0.0,0.0,0.0,0.0,0.0,0.0,0.0,-0.0191753447066,0.0101203208174,-0.0202406416347,0.0,0.0,0.0,0.0,0.0,0.0,0.0,0.0,0.0,-0.899636829737,9.48207647938,2.02657551805,0.0,0.0,0.0,0.0,0.0,0.0,0.0,0.0,0.0
1430096095581539165,378,1430096095578610332,,0.0,0.0,0.0,0.0,0.0,0.0,0.0,0.0,0.0,0.0,0.0,0.0,0.0,-0.0191753447066,0.0133162116018,-0.0186426962425,0.0,0.0,0.0,0.0,0.0,0.0,0.0,0.0,0.0,-0.878102969451,9.4605426191,2.01700491348,0.0,0.0,0.0,0.0,0.0,0.0,0.0,0.0,0.0
1430096135578254920,379,1430096135575623629,,0.0,0.0,0.0,0.0,0.0,0.0,0.0,0.0,0.0,0.0,0.0,0.0,0.0,-0.0191753447066,0.0143815085299,-0.022371235491,0.0,0.0,0.0,0.0,0.0,0.0,0.0,0.0,0.0,-0.954667806024,9.47489852596,2.05767998291,0.0,0.0,0.0,0.0,0.0,0.0,0.0,0.0,0.0
1430096175579209633,380,1430096175576633467,,0.0,0.0,0.0,0.0,0.0,0.0,0.0,0.0,0.0,0.0,0.0,0.0,0.0,-0.0170447508503,0.0111856177455,-0.0181100477784,0.0,0.0,0.0,0.0,0.0,0.0,0.0,0.0,0.0,-0.894851527451,9.42226020081,1.93565477462,0.0,0.0,0.0,0.0,0.0,0.0,0.0,0.0,0.0
1430096215579256721,381,1430096215576216013,,0.0,0.0,0.0,0.0,0.0,0.0,0.0,0.0,0.0,0.0,0.0,0.0,0.0,-0.0175773993144,0.0138488600659,-0.0186426962425,0.0,0.0,0.0,0.0,0.0,0.0,0.0,0.0,0.0,-0.909207434309,9.45814996796,2.02657551805,0.0,0.0,0.0,0.0,0.0,0.0,0.0,0.0,0.0
1430096255578417726,382,1430096255575746685,,0.0,0.0,0.0,0.0,0.0,0.0,0.0,0.0,0.0,0.0,0.0,0.0,0.0,-0.0197079931706,0.0143815085299,-0.0191753447066,0.0,0.0,0.0,0.0,0.0,0.0,0.0,0.0,0.0,-0.868532364879,9.47489852596,2.11749626148,0.0,0.0,0.0,0.0,0.0,0.0,0.0,0.0,0.0
1430096295579568564,383,1430096295576785273,,0.0,0.0,0.0,0.0,0.0,0.0,0.0,0.0,0.0,0.0,0.0,0.0,0.0,-0.0159794539221,0.0143815085299,-0.0181100477784,0.0,0.0,0.0,0.0,0.0,0.0,0.0,0.0,0.0,-0.851783806879,9.48207647938,1.97154454176,0.0,0.0,0.0,0.0,0.0,0.0,0.0,0.0,0.0
1430096335578328902,384,1430096335575587861,,0.0,0.0,0.0,0.0,0.0,0.0,0.0,0.0,0.0,0.0,0.0,0.0,0.0,-0.0159794539221,0.0133162116018,-0.0186426962425,0.0,0.0,0.0,0.0,0.0,0.0,0.0,0.0,0.0,-0.930741294595,9.52275154881,2.08878444777,0.0,0.0,0.0,0.0,0.0,0.0,0.0,0.0,0.0
1430096375578314157,385,1430096375575597532,,0.0,0.0,0.0,0.0,0.0,0.0,0.0,0.0,0.0,0.0,0.0,0.0,0.0,-0.0207732900988,0.0138488600659,-0.0202406416347,0.0,0.0,0.0,0.0,0.0,0.0,0.0,0.0,0.0,-0.88528092288,9.44618671224,2.00504165777,0.0,0.0,0.0,0.0,0.0,0.0,0.0,0.0,0.0
1430096415578306370,386,1430096415575630870,,0.0,0.0,0.0,0.0,0.0,0.0,0.0,0.0,0.0,0.0,0.0,0.0,0.0,-0.0143815085299,0.0138488600659,-0.0175773993144,0.0,0.0,0.0,0.0,0.0,0.0,0.0,0.0,0.0,-0.856569109165,9.45814996796,2.00982696005,0.0,0.0,0.0,0.0,0.0,0.0,0.0,0.0,0.0
1430096455578311208,387,1430096455575629833,,0.0,0.0,0.0,0.0,0.0,0.0,0.0,0.0,0.0,0.0,0.0,0.0,0.0,-0.0197079931706,0.0133162116018,-0.0165121023862,0.0,0.0,0.0,0.0,0.0,0.0,0.0,0.0,0.0,-0.875710318308,9.47968382824,2.00504165777,0.0,0.0,0.0,0.0,0.0,0.0,0.0,0.0,0.0
1430096495578273255,388,1430096495575589172,,0.0,0.0,0.0,0.0,0.0,0.0,0.0,0.0,0.0,0.0,0.0,0.0,0.0,-0.0186426962425,0.0138488600659,-0.0165121023862,0.0,0.0,0.0,0.0,0.0,0.0,0.0,0.0,0.0,-0.947489852596,9.40790429395,2.06485793634,0.0,0.0,0.0,0.0,0.0,0.0,0.0,0.0,0.0
1430096535579009093,389,1430096535575657843,,0.0,0.0,0.0,0.0,0.0,0.0,0.0,0.0,0.0,0.0,0.0,0.0,0.0,-0.0191753447066,0.0133162116018,-0.0197079931706,0.0,0.0,0.0,0.0,0.0,0.0,0.0,0.0,0.0,-0.880495620594,9.53471480453,2.02896816919,0.0,0.0,0.0,0.0,0.0,0.0,0.0,0.0,0.0
1430096575578345764,390,1430096575575616889,,0.0,0.0,0.0,0.0,0.0,0.0,0.0,0.0,0.0,0.0,0.0,0.0,0.0,-0.0165121023862,0.0106529692814,-0.0175773993144,0.0,0.0,0.0,0.0,0.0,0.0,0.0,0.0,0.0,-0.851783806879,9.48207647938,2.02657551805,0.0,0.0,0.0,0.0,0.0,0.0,0.0,0.0,0.0
1430096615578504602,391,1430096615575635227,,0.0,0.0,0.0,0.0,0.0,0.0,0.0,0.0,0.0,0.0,0.0,0.0,0.0,-0.0191753447066,0.00905502388921,-0.0181100477784,0.0,0.0,0.0,0.0,0.0,0.0,0.0,0.0,0.0,-0.868532364879,9.44618671224,2.05289468062,0.0,0.0,0.0,0.0,0.0,0.0,0.0,0.0,0.0
1430096655578299691,392,1430096655575593982,,0.0,0.0,0.0,0.0,0.0,0.0,0.0,0.0,0.0,0.0,0.0,0.0,0.0,-0.0191753447066,0.0127835631377,-0.0159794539221,0.0,0.0,0.0,0.0,0.0,0.0,0.0,0.0,0.0,-0.873317667165,9.53232215339,1.99068575091,0.0,0.0,0.0,0.0,0.0,0.0,0.0,0.0,0.0
1430096695578467112,393,1430096695575808445,,0.0,0.0,0.0,0.0,0.0,0.0,0.0,0.0,0.0,0.0,0.0,0.0,0.0,-0.0197079931706,0.0127835631377,-0.0170447508503,0.0,0.0,0.0,0.0,0.0,0.0,0.0,0.0,0.0,-0.969023712882,9.50121768853,2.04093142491,0.0,0.0,0.0,0.0,0.0,0.0,0.0,0.0,0.0
1430096735578935408,394,1430096735576077700,,0.0,0.0,0.0,0.0,0.0,0.0,0.0,0.0,0.0,0.0,0.0,0.0,0.0,-0.0197079931706,0.0122509146736,-0.0197079931706,0.0,0.0,0.0,0.0,0.0,0.0,0.0,0.0,0.0,-0.873317667165,9.47968382824,2.02179021577,0.0,0.0,0.0,0.0,0.0,0.0,0.0,0.0,0.0
1430096775578320330,395,1430096775575617788,,0.0,0.0,0.0,0.0,0.0,0.0,0.0,0.0,0.0,0.0,0.0,0.0,0.0,-0.0159794539221,0.0133162116018,-0.0186426962425,0.0,0.0,0.0,0.0,0.0,0.0,0.0,0.0,0.0,-0.882888271737,9.4940397351,2.10074770348,0.0,0.0,0.0,0.0,0.0,0.0,0.0,0.0,0.0
1430096815578350418,396,1430096815575592293,,0.0,0.0,0.0,0.0,0.0,0.0,0.0,0.0,0.0,0.0,0.0,0.0,0.0,-0.0197079931706,0.0106529692814,-0.0191753447066,0.0,0.0,0.0,0.0,0.0,0.0,0.0,0.0,0.0,-0.945097201453,9.44857936338,1.99547105319,0.0,0.0,0.0,0.0,0.0,0.0,0.0,0.0,0.0
1430096855578323173,397,1430096855575611881,,0.0,0.0,0.0,0.0,0.0,0.0,0.0,0.0,0.0,0.0,0.0,0.0,0.0,-0.0186426962425,0.0122509146736,-0.0191753447066,0.0,0.0,0.0,0.0,0.0,0.0,0.0,0.0,0.0,-0.945097201453,9.4102969451,2.0457167272,0.0,0.0,0.0,0.0,0.0,0.0,0.0,0.0,0.0
1430096895578563636,398,1430096895576016303,,0.0,0.0,0.0,0.0,0.0,0.0,0.0,0.0,0.0,0.0,0.0,0.0,0.0,-0.0175773993144,0.0127835631377,-0.0181100477784,0.0,0.0,0.0,0.0,0.0,0.0,0.0,0.0,0.0,-0.887673574023,9.45097201453,1.98111514634,0.0,0.0,0.0,0.0,0.0,0.0,0.0,0.0,0.0
1430096935578543516,399,1430096935575629182,,0.0,0.0,0.0,0.0,0.0,0.0,0.0,0.0,0.0,0.0,0.0,0.0,0.0,-0.014914156994,0.0127835631377,-0.0170447508503,0.0,0.0,0.0,0.0,0.0,0.0,0.0,0.0,0.0,-0.882888271737,9.49164708396,2.01221961119,0.0,0.0,0.0,0.0,0.0,0.0,0.0,0.0,0.0
1430096975579405729,400,1430096975576566979,,0.0,0.0,0.0,0.0,0.0,0.0,0.0,0.0,0.0,0.0,0.0,0.0,0.0,-0.0191753447066,0.0106529692814,-0.0170447508503,0.0,0.0,0.0,0.0,0.0,0.0,0.0,0.0,0.0,-0.904422132023,9.50361033967,1.99068575091,0.0,0.0,0.0,0.0,0.0,0.0,0.0,0.0,0.0
1430097015578282650,401,1430097015575602150,,0.0,0.0,0.0,0.0,0.0,0.0,0.0,0.0,0.0,0.0,0.0,0.0,0.0,-0.0191753447066,0.0101203208174,-0.0213059385628,0.0,0.0,0.0,0.0,0.0,0.0,0.0,0.0,0.0,-0.849391155736,9.48446913053,2.14860072634,0.0,0.0,0.0,0.0,0.0,0.0,0.0,0.0,0.0
1430097055578339697,402,1430097055575629738,,0.0,0.0,0.0,0.0,0.0,0.0,0.0,0.0,0.0,0.0,0.0,0.0,0.0,-0.014914156994,0.0138488600659,-0.0165121023862,0.0,0.0,0.0,0.0,0.0,0.0,0.0,0.0,0.0,-0.890066225166,9.50839564196,1.98350779748,0.0,0.0,0.0,0.0,0.0,0.0,0.0,0.0,0.0
1430097095578291576,403,1430097095575628201,,0.0,0.0,0.0,0.0,0.0,0.0,0.0,0.0,0.0,0.0,0.0,0.0,0.0,-0.0175773993144,0.0122509146736,-0.0186426962425,0.0,0.0,0.0,0.0,0.0,0.0,0.0,0.0,0.0,-0.878102969451,9.46532792138,2.06485793634,0.0,0.0,0.0,0.0,0.0,0.0,0.0,0.0,0.0
1430097135578264831,404,1430097135575611539,,0.0,0.0,0.0,0.0,0.0,0.0,0.0,0.0,0.0,0.0,0.0,0.0,0.0,-0.0202406416347,0.0133162116018,-0.0165121023862,0.0,0.0,0.0,0.0,0.0,0.0,0.0,0.0,0.0,-0.966631061739,9.50361033967,1.99068575091,0.0,0.0,0.0,0.0,0.0,0.0,0.0,0.0,0.0
1430097175578244169,405,1430097175575612211,,0.0,0.0,0.0,0.0,0.0,0.0,0.0,0.0,0.0,0.0,0.0,0.0,0.0,-0.0154468054581,0.0143815085299,-0.0186426962425,0.0,0.0,0.0,0.0,0.0,0.0,0.0,0.0,0.0,-0.882888271737,9.43422345653,2.08160649434,0.0,0.0,0.0,0.0,0.0,0.0,0.0,0.0,0.0
1430097215578559299,406,1430097215575628049,,0.0,0.0,0.0,0.0,0.0,0.0,0.0,0.0,0.0,0.0,0.0,0.0,0.0,-0.0202406416347,0.0111856177455,-0.0165121023862,0.0,0.0,0.0,0.0,0.0,0.0,0.0,0.0,0.0,-0.892458876308,9.43661610767,1.95001068148,0.0,0.0,0.0,0.0,0.0,0.0,0.0,0.0,0.0
1430097255578276595,407,1430097255575613429,,0.0,0.0,0.0,0.0,0.0,0.0,0.0,0.0,0.0,0.0,0.0,0.0,0.0,-0.0202406416347,0.0133162116018,-0.0197079931706,0.0,0.0,0.0,0.0,0.0,0.0,0.0,0.0,0.0,-0.892458876308,9.49643238624,2.02657551805,0.0,0.0,0.0,0.0,0.0,0.0,0.0,0.0,0.0
1430097295578363059,408,1430097295575621809,,0.0,0.0,0.0,0.0,0.0,0.0,0.0,0.0,0.0,0.0,0.0,0.0,0.0,-0.0181100477784,0.0122509146736,-0.0175773993144,0.0,0.0,0.0,0.0,0.0,0.0,0.0,0.0,0.0,-0.880495620594,9.47489852596,2.02418286691,0.0,0.0,0.0,0.0,0.0,0.0,0.0,0.0,0.0
1430097335578498897,409,1430097335575607938,,0.0,0.0,0.0,0.0,0.0,0.0,0.0,0.0,0.0,0.0,0.0,0.0,0.0,-0.0186426962425,0.0111856177455,-0.0191753447066,0.0,0.0,0.0,0.0,0.0,0.0,0.0,0.0,0.0,-0.925955992309,9.44618671224,2.08160649434,0.0,0.0,0.0,0.0,0.0,0.0,0.0,0.0,0.0
1430097375578313068,410,1430097375575614693,,0.0,0.0,0.0,0.0,0.0,0.0,0.0,0.0,0.0,0.0,0.0,0.0,0.0,-0.0186426962425,0.0117182662096,-0.0170447508503,0.0,0.0,0.0,0.0,0.0,0.0,0.0,0.0,0.0,-0.904422132023,9.48207647938,2.03136082034,0.0,0.0,0.0,0.0,0.0,0.0,0.0,0.0,0.0
1430097415578316448,411,1430097415575616573,,0.0,0.0,0.0,0.0,0.0,0.0,0.0,0.0,0.0,0.0,0.0,0.0,0.0,-0.014914156994,0.0111856177455,-0.0191753447066,0.0,0.0,0.0,0.0,0.0,0.0,0.0,0.0,0.0,-0.880495620594,9.46532792138,1.99068575091,0.0,0.0,0.0,0.0,0.0,0.0,0.0,0.0,0.0
1430097455578461911,412,1430097455575603828,,0.0,0.0,0.0,0.0,0.0,0.0,0.0,0.0,0.0,0.0,0.0,0.0,0.0,-0.0191753447066,0.014914156994,-0.0170447508503,0.0,0.0,0.0,0.0,0.0,0.0,0.0,0.0,0.0,-0.88528092288,9.50600299081,1.98590044862,0.0,0.0,0.0,0.0,0.0,0.0,0.0,0.0,0.0
1430097495578279582,413,1430097495575588124,,0.0,0.0,0.0,0.0,0.0,0.0,0.0,0.0,0.0,0.0,0.0,0.0,0.0,-0.0186426962425,0.0117182662096,-0.0197079931706,0.0,0.0,0.0,0.0,0.0,0.0,0.0,0.0,0.0,-0.966631061739,9.44140140996,2.03136082034,0.0,0.0,0.0,0.0,0.0,0.0,0.0,0.0,0.0
1430097535579487879,414,1430097535575763920,,0.0,0.0,0.0,0.0,0.0,0.0,0.0,0.0,0.0,0.0,0.0,0.0,0.0,-0.0154468054581,0.0138488600659,-0.0170447508503,0.0,0.0,0.0,0.0,0.0,0.0,0.0,0.0,0.0,-0.858961760308,9.4772911771,2.00982696005,0.0,0.0,0.0,0.0,0.0,0.0,0.0,0.0,0.0
1430097575579114092,415,1430097575575634592,,0.0,0.0,0.0,0.0,0.0,0.0,0.0,0.0,0.0,0.0,0.0,0.0,0.0,-0.0202406416347,0.0122509146736,-0.0181100477784,0.0,0.0,0.0,0.0,0.0,0.0,0.0,0.0,0.0,-0.878102969451,9.45814996796,2.0457167272,0.0,0.0,0.0,0.0,0.0,0.0,0.0,0.0,0.0
1430097615578306180,416,1430097615575607722,,0.0,0.0,0.0,0.0,0.0,0.0,0.0,0.0,0.0,0.0,0.0,0.0,0.0,-0.0202406416347,0.0127835631377,-0.0197079931706,0.0,0.0,0.0,0.0,0.0,0.0,0.0,0.0,0.0,-0.906814783166,9.54189275796,2.02896816919,0.0,0.0,0.0,0.0,0.0,0.0,0.0,0.0,0.0
1430097655578767560,417,1430097655576185768,,0.0,0.0,0.0,0.0,0.0,0.0,0.0,0.0,0.0,0.0,0.0,0.0,0.0,-0.0175773993144,0.0111856177455,-0.0159794539221,0.0,0.0,0.0,0.0,0.0,0.0,0.0,0.0,0.0,-0.916385387738,9.45336466567,2.00743430891,0.0,0.0,0.0,0.0,0.0,0.0,0.0,0.0,0.0
1430097695578420606,418,1430097695575624023,,0.0,0.0,0.0,0.0,0.0,0.0,0.0,0.0,0.0,0.0,0.0,0.0,0.0,-0.0170447508503,0.014914156994,-0.0186426962425,0.0,0.0,0.0,0.0,0.0,0.0,0.0,0.0,0.0,-0.904422132023,9.4102969451,2.07682119205,0.0,0.0,0.0,0.0,0.0,0.0,0.0,0.0,0.0
1430097735583140194,419,1430097735575606569,,0.0,0.0,0.0,0.0,0.0,0.0,0.0,0.0,0.0,0.0,0.0,0.0,0.0,-0.0165121023862,0.0106529692814,-0.0186426962425,0.0,0.0,0.0,0.0,0.0,0.0,0.0,0.0,0.0,-0.868532364879,9.45097201453,2.03375347148,0.0,0.0,0.0,0.0,0.0,0.0,0.0,0.0,0.0
1430097775578956449,420,1430097775576313199,,0.0,0.0,0.0,0.0,0.0,0.0,0.0,0.0,0.0,0.0,0.0,0.0,0.0,-0.0186426962425,0.0101203208174,-0.0165121023862,0.0,0.0,0.0,0.0,0.0,0.0,0.0,0.0,0.0,-0.870925016022,9.47968382824,2.05050202948,0.0,0.0,0.0,0.0,0.0,0.0,0.0,0.0,0.0
1430097815579232121,421,1430097815575895454,,0.0,0.0,0.0,0.0,0.0,0.0,0.0,0.0,0.0,0.0,0.0,0.0,0.0,-0.0186426962425,0.0127835631377,-0.0213059385628,0.0,0.0,0.0,0.0,0.0,0.0,0.0,0.0,0.0,-0.904422132023,9.47968382824,2.04093142491,0.0,0.0,0.0,0.0,0.0,0.0,0.0,0.0,0.0
1430097855578285375,422,1430097855575605875,,0.0,0.0,0.0,0.0,0.0,0.0,0.0,0.0,0.0,0.0,0.0,0.0,0.0,-0.0154468054581,0.0133162116018,-0.0165121023862,0.0,0.0,0.0,0.0,0.0,0.0,0.0,0.0,0.0,-0.870925016022,9.45336466567,2.0624652852,0.0,0.0,0.0,0.0,0.0,0.0,0.0,0.0,0.0
1430097895578269213,423,1430097895575603922,,0.0,0.0,0.0,0.0,0.0,0.0,0.0,0.0,0.0,0.0,0.0,0.0,0.0,-0.0181100477784,0.0122509146736,-0.0175773993144,0.0,0.0,0.0,0.0,0.0,0.0,0.0,0.0,0.0,-0.861354411451,9.50839564196,1.98590044862,0.0,0.0,0.0,0.0,0.0,0.0,0.0,0.0,0.0
1430097935578390010,424,1430097935575616427,,0.0,0.0,0.0,0.0,0.0,0.0,0.0,0.0,0.0,0.0,0.0,0.0,0.0,-0.0186426962425,0.0117182662096,-0.0175773993144,0.0,0.0,0.0,0.0,0.0,0.0,0.0,0.0,0.0,-0.930741294595,9.45575731681,2.00025635548,0.0,0.0,0.0,0.0,0.0,0.0,0.0,0.0,0.0
1430097975578286890,425,1430097975575617848,,0.0,0.0,0.0,0.0,0.0,0.0,0.0,0.0,0.0,0.0,0.0,0.0,0.0,-0.0181100477784,0.0138488600659,-0.0175773993144,0.0,0.0,0.0,0.0,0.0,0.0,0.0,0.0,0.0,-0.868532364879,9.51318094424,2.01939756462,0.0,0.0,0.0,0.0,0.0,0.0,0.0,0.0,0.0
1430098015578322436,426,1430098015575605144,,0.0,0.0,0.0,0.0,0.0,0.0,0.0,0.0,0.0,0.0,0.0,0.0,0.0,-0.0181100477784,0.0127835631377,-0.0191753447066,0.0,0.0,0.0,0.0,0.0,0.0,0.0,0.0,0.0,-0.909207434309,9.43661610767,1.98111514634,0.0,0.0,0.0,0.0,0.0,0.0,0.0,0.0,0.0
1430098055578280732,427,1430098055575591232,,0.0,0.0,0.0,0.0,0.0,0.0,0.0,0.0,0.0,0.0,0.0,0.0,0.0,-0.0154468054581,0.0111856177455,-0.0175773993144,0.0,0.0,0.0,0.0,0.0,0.0,0.0,0.0,0.0,-0.887673574023,9.43900875881,2.03136082034,0.0,0.0,0.0,0.0,0.0,0.0,0.0,0.0,0.0
1430098095578247904,428,1430098095575567279,,0.0,0.0,0.0,0.0,0.0,0.0,0.0,0.0,0.0,0.0,0.0,0.0,0.0,-0.0175773993144,0.0138488600659,-0.0175773993144,0.0,0.0,0.0,0.0,0.0,0.0,0.0,0.0,0.0,-0.808716086306,9.45575731681,2.02179021577,0.0,0.0,0.0,0.0,0.0,0.0,0.0,0.0,0.0
1430098135578405200,429,1430098135575599950,,0.0,0.0,0.0,0.0,0.0,0.0,0.0,0.0,0.0,0.0,0.0,0.0,0.0,-0.0165121023862,0.0143815085299,-0.0191753447066,0.0,0.0,0.0,0.0,0.0,0.0,0.0,0.0,0.0,-0.952275154881,9.4940397351,2.07203588977,0.0,0.0,0.0,0.0,0.0,0.0,0.0,0.0,0.0
1430098175578229080,430,1430098175575552872,,0.0,0.0,0.0,0.0,0.0,0.0,0.0,0.0,0.0,0.0,0.0,0.0,0.0,-0.0191753447066,0.0127835631377,-0.0207732900988,0.0,0.0,0.0,0.0,0.0,0.0,0.0,0.0,0.0,-0.913992736595,9.45814996796,2.06725058748,0.0,0.0,0.0,0.0,0.0,0.0,0.0,0.0,0.0
1430098215578243585,431,1430098215575580127,,0.0,0.0,0.0,0.0,0.0,0.0,0.0,0.0,0.0,0.0,0.0,0.0,0.0,-0.0170447508503,0.00798972696107,-0.0170447508503,0.0,0.0,0.0,0.0,0.0,0.0,0.0,0.0,0.0,-0.990557573168,9.4437940611,1.95240333262,0.0,0.0,0.0,0.0,0.0,0.0,0.0,0.0,0.0
1430098255579518006,432,1430098255576902256,,0.0,0.0,0.0,0.0,0.0,0.0,0.0,0.0,0.0,0.0,0.0,0.0,0.0,-0.0202406416347,0.0122509146736,-0.0207732900988,0.0,0.0,0.0,0.0,0.0,0.0,0.0,0.0,0.0,-0.947489852596,9.50839564196,1.95958128605,0.0,0.0,0.0,0.0,0.0,0.0,0.0,0.0,0.0
1430098295578270178,433,1430098295575557136,,0.0,0.0,0.0,0.0,0.0,0.0,0.0,0.0,0.0,0.0,0.0,0.0,0.0,-0.0181100477784,0.0101203208174,-0.0175773993144,0.0,0.0,0.0,0.0,0.0,0.0,0.0,0.0,0.0,-0.875710318308,9.43422345653,2.02896816919,0.0,0.0,0.0,0.0,0.0,0.0,0.0,0.0,0.0
1430098335578259974,434,1430098335575558141,,0.0,0.0,0.0,0.0,0.0,0.0,0.0,0.0,0.0,0.0,0.0,0.0,0.0,-0.0181100477784,0.0127835631377,-0.0175773993144,0.0,0.0,0.0,0.0,0.0,0.0,0.0,0.0,0.0,-0.878102969451,9.5107882931,2.02896816919,0.0,0.0,0.0,0.0,0.0,0.0,0.0,0.0,0.0
1430098375578313396,435,1430098375575569937,,0.0,0.0,0.0,0.0,0.0,0.0,0.0,0.0,0.0,0.0,0.0,0.0,0.0,-0.0186426962425,0.0133162116018,-0.014914156994,0.0,0.0,0.0,0.0,0.0,0.0,0.0,0.0,0.0,-0.882888271737,9.42943815424,2.02896816919,0.0,0.0,0.0,0.0,0.0,0.0,0.0,0.0,0.0
1430098415578256609,436,1430098415575576234,,0.0,0.0,0.0,0.0,0.0,0.0,0.0,0.0,0.0,0.0,0.0,0.0,0.0,-0.0202406416347,0.0122509146736,-0.0181100477784,0.0,0.0,0.0,0.0,0.0,0.0,0.0,0.0,0.0,-0.911600085452,9.46772057253,2.12467421491,0.0,0.0,0.0,0.0,0.0,0.0,0.0,0.0,0.0
1430098455578230280,437,1430098455575554738,,0.0,0.0,0.0,0.0,0.0,0.0,0.0,0.0,0.0,0.0,0.0,0.0,0.0,-0.0170447508503,0.0127835631377,-0.0186426962425,0.0,0.0,0.0,0.0,0.0,0.0,0.0,0.0,0.0,-0.873317667165,9.48207647938,2.05289468062,0.0,0.0,0.0,0.0,0.0,0.0,0.0,0.0,0.0
1430098495578267618,438,1430098495575560910,,0.0,0.0,0.0,0.0,0.0,0.0,0.0,0.0,0.0,0.0,0.0,0.0,0.0,-0.0191753447066,0.0122509146736,-0.0165121023862,0.0,0.0,0.0,0.0,0.0,0.0,0.0,0.0,0.0,-0.868532364879,9.53232215339,2.10553300577,0.0,0.0,0.0,0.0,0.0,0.0,0.0,0.0,0.0
1430098535578511540,439,1430098535575984581,,0.0,0.0,0.0,0.0,0.0,0.0,0.0,0.0,0.0,0.0,0.0,0.0,0.0,-0.0170447508503,0.0122509146736,-0.0207732900988,0.0,0.0,0.0,0.0,0.0,0.0,0.0,0.0,0.0,-0.928348643452,9.44618671224,2.00264900662,0.0,0.0,0.0,0.0,0.0,0.0,0.0,0.0,0.0
1430098575578296003,440,1430098575575584919,,0.0,0.0,0.0,0.0,0.0,0.0,0.0,0.0,0.0,0.0,0.0,0.0,0.0,-0.0213059385628,0.014914156994,-0.0191753447066,0.0,0.0,0.0,0.0,0.0,0.0,0.0,0.0,0.0,-0.916385387738,9.50121768853,2.02179021577,0.0,0.0,0.0,0.0,0.0,0.0,0.0,0.0,0.0
1430098615578219258,441,1430098615575554591,,0.0,0.0,0.0,0.0,0.0,0.0,0.0,0.0,0.0,0.0,0.0,0.0,0.0,-0.0170447508503,0.0133162116018,-0.0181100477784,0.0,0.0,0.0,0.0,0.0,0.0,0.0,0.0,0.0,-0.873317667165,9.44857936338,2.00743430891,0.0,0.0,0.0,0.0,0.0,0.0,0.0,0.0,0.0
1430098655578261096,442,1430098655575568804,,0.0,0.0,0.0,0.0,0.0,0.0,0.0,0.0,0.0,0.0,0.0,0.0,0.0,-0.0191753447066,0.0122509146736,-0.0197079931706,0.0,0.0,0.0,0.0,0.0,0.0,0.0,0.0,0.0,-0.880495620594,9.46532792138,1.96915189062,0.0,0.0,0.0,0.0,0.0,0.0,0.0,0.0,0.0
1430098695577010059,443,1430098695575332100,,0.0,0.0,0.0,0.0,0.0,0.0,0.0,0.0,0.0,0.0,0.0,0.0,0.0,-0.0186426962425,0.0143815085299,-0.0197079931706,0.0,0.0,0.0,0.0,0.0,0.0,0.0,0.0,0.0,-0.949882503739,9.4437940611,1.99547105319,0.0,0.0,0.0,0.0,0.0,0.0,0.0,0.0,0.0
1430098735578243605,444,1430098735575548189,,0.0,0.0,0.0,0.0,0.0,0.0,0.0,0.0,0.0,0.0,0.0,0.0,0.0,-0.0181100477784,0.0133162116018,-0.0175773993144,0.0,0.0,0.0,0.0,0.0,0.0,0.0,0.0,0.0,-0.866139713736,9.44857936338,2.06007263405,0.0,0.0,0.0,0.0,0.0,0.0,0.0,0.0,0.0
1430098775577898068,445,1430098775575545068,,0.0,0.0,0.0,0.0,0.0,0.0,0.0,0.0,0.0,0.0,0.0,0.0,0.0,-0.0202406416347,0.0111856177455,-0.0159794539221,0.0,0.0,0.0,0.0,0.0,0.0,0.0,0.0,0.0,-0.928348643452,9.51318094424,2.00982696005,0.0,0.0,0.0,0.0,0.0,0.0,0.0,0.0,0.0
1430098815578269781,446,1430098815575552490,,0.0,0.0,0.0,0.0,0.0,0.0,0.0,0.0,0.0,0.0,0.0,0.0,0.0,-0.0197079931706,0.0133162116018,-0.0191753447066,0.0,0.0,0.0,0.0,0.0,0.0,0.0,0.0,0.0,-0.906814783166,9.4940397351,2.03136082034,0.0,0.0,0.0,0.0,0.0,0.0,0.0,0.0,0.0
1430098855578229578,447,1430098855575553495,,0.0,0.0,0.0,0.0,0.0,0.0,0.0,0.0,0.0,0.0,0.0,0.0,0.0,-0.0154468054581,0.014914156994,-0.0175773993144,0.0,0.0,0.0,0.0,0.0,0.0,0.0,0.0,0.0,-0.918778038881,9.44140140996,2.09835505234,0.0,0.0,0.0,0.0,0.0,0.0,0.0,0.0,0.0
1430098895582593166,448,1430098895575575041,,0.0,0.0,0.0,0.0,0.0,0.0,0.0,0.0,0.0,0.0,0.0,0.0,0.0,-0.0181100477784,0.0127835631377,-0.0197079931706,0.0,0.0,0.0,0.0,0.0,0.0,0.0,0.0,0.0,-0.892458876308,9.45575731681,2.01939756462,0.0,0.0,0.0,0.0,0.0,0.0,0.0,0.0,0.0
1430098935578499629,449,1430098935575599712,,0.0,0.0,0.0,0.0,0.0,0.0,0.0,0.0,0.0,0.0,0.0,0.0,0.0,-0.0175773993144,0.0133162116018,-0.0175773993144,0.0,0.0,0.0,0.0,0.0,0.0,0.0,0.0,0.0,-0.90202948088,9.48207647938,2.01221961119,0.0,0.0,0.0,0.0,0.0,0.0,0.0,0.0,0.0
1430098975578406384,450,1430098975575665759,,0.0,0.0,0.0,0.0,0.0,0.0,0.0,0.0,0.0,0.0,0.0,0.0,0.0,-0.014914156994,0.0138488600659,-0.014914156994,0.0,0.0,0.0,0.0,0.0,0.0,0.0,0.0,0.0,-0.894851527451,9.5107882931,2.04332407605,0.0,0.0,0.0,0.0,0.0,0.0,0.0,0.0,0.0
1430099015577768722,451,1430099015575543680,,0.0,0.0,0.0,0.0,0.0,0.0,0.0,0.0,0.0,0.0,0.0,0.0,0.0,-0.0175773993144,0.0122509146736,-0.0170447508503,0.0,0.0,0.0,0.0,0.0,0.0,0.0,0.0,0.0,-0.899636829737,9.5107882931,2.06964323862,0.0,0.0,0.0,0.0,0.0,0.0,0.0,0.0,0.0
1430099055578321560,452,1430099055575575810,,0.0,0.0,0.0,0.0,0.0,0.0,0.0,0.0,0.0,0.0,0.0,0.0,0.0,-0.0154468054581,0.0133162116018,-0.0191753447066,0.0,0.0,0.0,0.0,0.0,0.0,0.0,0.0,0.0,-0.878102969451,9.4772911771,2.05528733177,0.0,0.0,0.0,0.0,0.0,0.0,0.0,0.0,0.0
1430099095578237773,453,1430099095575556606,,0.0,0.0,0.0,0.0,0.0,0.0,0.0,0.0,0.0,0.0,0.0,0.0,0.0,-0.0170447508503,0.0122509146736,-0.0202406416347,0.0,0.0,0.0,0.0,0.0,0.0,0.0,0.0,0.0,-0.911600085452,9.47489852596,2.06485793634,0.0,0.0,0.0,0.0,0.0,0.0,0.0,0.0,0.0
1430099135578471278,454,1430099135575759653,,0.0,0.0,0.0,0.0,0.0,0.0,0.0,0.0,0.0,0.0,0.0,0.0,0.0,-0.0170447508503,0.0117182662096,-0.0202406416347,0.0,0.0,0.0,0.0,0.0,0.0,0.0,0.0,0.0,-0.918778038881,9.39833368938,2.03614612262,0.0,0.0,0.0,0.0,0.0,0.0,0.0,0.0,0.0
1430099175578240658,455,1430099175575565824,,0.0,0.0,0.0,0.0,0.0,0.0,0.0,0.0,0.0,0.0,0.0,0.0,0.0,-0.0165121023862,0.0127835631377,-0.0181100477784,0.0,0.0,0.0,0.0,0.0,0.0,0.0,0.0,0.0,-0.916385387738,9.48207647938,2.17013458663,0.0,0.0,0.0,0.0,0.0,0.0,0.0,0.0,0.0
